"","subject_id","subject_language.x","survey_time","chrome","firefox","IE","safari","opera","other","don.t.know","headphones","speakers","earbuds","very.bad","bad","normal","good","very.good","distractions_yes","distractions_no","wireless","wired","very_slowly","slowly","tolerably_so","pretty_fast","no_loading_time","satisfaction","subject_language.y","X18.29yrs","X30.39yrs","X40.49yrs","X50.59yrs","X60.69yrs","more_than_69yrs","handedness_L","handedness_R","lang_other_target_no","lang_other_target_yes","other_lang_na","other_lang_native","other_lang_bcpdexp","other_lang_assezdexp","other_lang_unpeudexp","other_lang_trespeudexp","other_lang_comp_na","other_lang_comp_native","other_lang_presque_native","other_lang_avancee","other_lang_intermediare","other_lang_debutant","hear_vis_problems_yes","hear_vis_problems_no","troubles_de_lang_yes","troubles_de_lang_no","ling_course_yes","ling_course_no","phonet_course_yes","phonet_course_no","phonog_course_yes","phonog_course_no","subject_language","trial_type","tripletid","S.order","A_Order","RT","order","first_sound","second_sound","paid_attention","distance_normed_filterbank__dtw_pathlength_OTH","distance_normed_filterbank__dtw_pathlength_TGT","distance_normed_filterbank__dtw_sum_OTH","distance_normed_filterbank__dtw_sum_TGT","distance_normed_mfcc__dtw_pathlength_OTH","distance_normed_mfcc__dtw_pathlength_TGT","distance_normed_mfcc__dtw_sum_OTH","distance_normed_mfcc__dtw_sum_TGT","distance_unnormed_filterbank__dtw_pathlength_OTH","distance_unnormed_filterbank__dtw_pathlength_TGT","distance_unnormed_filterbank__dtw_sum_OTH","distance_unnormed_filterbank__dtw_sum_TGT","distance_unnormed_mfcc__dtw_pathlength_OTH","distance_unnormed_mfcc__dtw_pathlength_TGT","distance_unnormed_mfcc__dtw_sum_OTH","distance_unnormed_mfcc__dtw_sum_TGT","CORR_ANS","item_TGT","item_OTH","item_X","file_TGT","onset_TGT","offset_TGT","word_TGT","speaker_TGT","CV_TGT","context_TGT","phone_TGT","file_OTH","onset_OTH","offset_OTH","word_OTH","speaker_OTH","CV_OTH","context_OTH","phone_OTH","file_X","onset_X","offset_X","word_X","speaker_X","CV_X","context_X","phone_X","user_resp","corr_ans","user_corr","delta_dist_sub","delta_dist_div","log_delta_dist_div"
"1","X_IHTYDKWOUB","English","0:26.7",1,0,0,0,0,0,0,0,1,0,0,0,0,1,0,0,1,0,1,0,0,1,0,0,78,"English",1,0,0,0,0,0,1,0,"1.0","0","0",0,1,0,0,0,0,0,1,0,0,0,0,1,0,1,0,1,0,1,0,1,"English","one_play_two_responses","stimulus83_B","orderSI=43","orderAI=14","0:6.9","14;",0,1,NA,5.04980667238372,3.95044152940679,429.233567152616,327.886646940764,4.70596259230785,4.44356003437991,390.594895161552,368.815482853533,18.998468174259,15.3384007596681,1614.86979481202,1273.08726305245,13.6302532748682,10.8312483699675,1131.31102181406,898.993614707303,"B","amelia_vowels_25","amelia_vowels_17","ewan_28","amelia_vowels.wav",66.85124,67.6025,"HUHDAH","amelia","V","A","ʌ","amelia_vowels.wav",44.25247,45.0725,"HEEDAH","amelia","V","A","i","ewan.wav",81.0625,81.7525,"HUHDAH","ewan","V","A","ʌ","B","B",1,-1.09936514297693,0.782295597772264,-0.245522607595362
"2","X_IHTYDKWOUB","English","0:26.7",1,0,0,0,0,0,0,0,1,0,0,0,0,1,0,0,1,0,1,0,0,1,0,0,78,"English",1,0,0,0,0,0,1,0,"1.0","0","0",0,1,0,0,0,0,0,1,0,0,0,0,1,0,1,0,1,0,1,0,1,"English","one_play_two_responses","stimulus87_B","orderSI=39","orderAI=15","0:5.7","15;",0,1,NA,4.59307019583023,4.18237789471523,404.19017723306,368.04925473494,4.69428418639005,4.37135386695183,399.014155843155,380.307786424809,16.6558364383703,15.1472904422494,1465.71360657658,1332.96155891795,13.078358214918,9.75093569430409,1072.42537362328,848.331405404456,"B","amelia_vowels_48","amelia_vowels_22","ewan_46","amelia_vowels.wav",123.87499,124.5925,"WHODI","amelia","V","I","u","amelia_vowels.wav",57.64913,58.41293,"HEEDI","amelia","V","I","i","ewan.wav",134.9925,135.7425,"WHODI","ewan","V","I","u","B","B",1,-0.410692301115001,0.910584362179389,-0.0936687293242489
"3","X_IHTYDKWOUB","English","0:26.7",1,0,0,0,0,0,0,0,1,0,0,0,0,1,0,0,1,0,1,0,0,1,0,0,78,"English",1,0,0,0,0,0,1,0,"1.0","0","0",0,1,0,0,0,0,0,1,0,0,0,0,1,0,1,0,1,0,1,0,1,"English","one_play_two_responses","stimulus43_B","orderSI=51","orderAI=16","0:5.1","16;",0,1,NA,NA,NA,NA,NA,NA,NA,NA,NA,NA,NA,NA,NA,NA,NA,NA,NA,NA,NA,NA,NA,NA,NA,NA,NA,NA,NA,NA,NA,NA,NA,NA,NA,NA,NA,NA,NA,NA,NA,NA,NA,NA,NA,NA,NA,"B","B",1,NA,NA,NA
"4","X_IHTYDKWOUB","English","0:26.7",1,0,0,0,0,0,0,0,1,0,0,0,0,1,0,0,1,0,1,0,0,1,0,0,78,"English",1,0,0,0,0,0,1,0,"1.0","0","0",0,1,0,0,0,0,0,1,0,0,0,0,1,0,1,0,1,0,1,0,1,"English","one_play_two_responses","stimulus86_B","orderSI=40","orderAI=17","0:11.5","17;",1,0,NA,5.25050220975553,3.69866995004697,430.541181199954,362.469655104604,5.06201373759292,3.65019895541914,430.271167695398,346.768900764819,18.3278904852343,14.4764724569268,1502.88701978921,1346.31193849419,13.7679482782881,9.67149655217452,1184.04355193278,928.463669008754,"B","amelia_vowels_17","amelia_vowels_41","ewan_19","amelia_vowels.wav",44.25247,45.0725,"HEEDAH","amelia","V","A","i","amelia_vowels.wav",107.22875,107.96148,"WHODAH","amelia","V","A","u","ewan.wav",54.4125,55.1725,"HEEDAH","ewan","V","A","i","A","B",0,-1.55183225970856,0.704441175774533,-0.350350448965547
"5","X_IHTYDKWOUB","English","0:26.7",1,0,0,0,0,0,0,0,1,0,0,0,0,1,0,0,1,0,1,0,0,1,0,0,78,"English",1,0,0,0,0,0,1,0,"1.0","0","0",0,1,0,0,0,0,0,1,0,0,0,0,1,0,1,0,1,0,1,0,1,"English","one_play_two_responses","stimulus36_A","orderSI=58","orderAI=18","0:4.3","18;",1,0,NA,NA,NA,NA,NA,NA,NA,NA,NA,NA,NA,NA,NA,NA,NA,NA,NA,NA,NA,NA,NA,NA,NA,NA,NA,NA,NA,NA,NA,NA,NA,NA,NA,NA,NA,NA,NA,NA,NA,NA,NA,NA,NA,NA,NA,"A","A",1,NA,NA,NA
"6","X_IHTYDKWOUB","English","0:26.7",1,0,0,0,0,0,0,0,1,0,0,0,0,1,0,0,1,0,1,0,0,1,0,0,78,"English",1,0,0,0,0,0,1,0,"1.0","0","0",0,1,0,0,0,0,0,1,0,0,0,0,1,0,1,0,1,0,1,0,1,"English","one_play_two_responses","stimulus94_B","orderSI=32","orderAI=19","0:2.9","19;",0,1,NA,NA,NA,NA,NA,NA,NA,NA,NA,NA,NA,NA,NA,NA,NA,NA,NA,NA,NA,NA,NA,NA,NA,NA,NA,NA,NA,NA,NA,NA,NA,NA,NA,NA,NA,NA,NA,NA,NA,NA,NA,NA,NA,NA,NA,"B","B",1,NA,NA,NA
"7","X_IHTYDKWOUB","English","0:26.7",1,0,0,0,0,0,0,0,1,0,0,0,0,1,0,0,1,0,1,0,0,1,0,0,78,"English",1,0,0,0,0,0,1,0,"1.0","0","0",0,1,0,0,0,0,0,1,0,0,0,0,1,0,1,0,1,0,1,0,1,"English","one_play_two_responses","stimulus38_B","orderSI=56","orderAI=20","0:2.7","20;",1,0,NA,NA,NA,NA,NA,NA,NA,NA,NA,NA,NA,NA,NA,NA,NA,NA,NA,NA,NA,NA,NA,NA,NA,NA,NA,NA,NA,NA,NA,NA,NA,NA,NA,NA,NA,NA,NA,NA,NA,NA,NA,NA,NA,NA,NA,"A","B",0,NA,NA,NA
"8","X_IHTYDKWOUB","English","0:26.7",1,0,0,0,0,0,0,0,1,0,0,0,0,1,0,0,1,0,1,0,0,1,0,0,78,"English",1,0,0,0,0,0,1,0,"1.0","0","0",0,1,0,0,0,0,0,1,0,0,0,0,1,0,1,0,1,0,1,0,1,"English","one_play_two_responses","stimulus92_A","orderSI=34","orderAI=21","0:4.0","21;",0,1,NA,NA,NA,NA,NA,NA,NA,NA,NA,NA,NA,NA,NA,NA,NA,NA,NA,NA,NA,NA,NA,NA,NA,NA,NA,NA,NA,NA,NA,NA,NA,NA,NA,NA,NA,NA,NA,NA,NA,NA,NA,NA,NA,NA,NA,"B","A",0,NA,NA,NA
"9","X_IHTYDKWOUB","English","0:26.7",1,0,0,0,0,0,0,0,1,0,0,0,0,1,0,0,1,0,1,0,0,1,0,0,78,"English",1,0,0,0,0,0,1,0,"1.0","0","0",0,1,0,0,0,0,0,1,0,0,0,0,1,0,1,0,1,0,1,0,1,"English","one_play_two_responses","stimulus90_B","orderSI=36","orderAI=22","0:4.7","22;",1,0,NA,NA,NA,NA,NA,NA,NA,NA,NA,NA,NA,NA,NA,NA,NA,NA,NA,NA,NA,NA,NA,NA,NA,NA,NA,NA,NA,NA,NA,NA,NA,NA,NA,NA,NA,NA,NA,NA,NA,NA,NA,NA,NA,NA,NA,"A","B",0,NA,NA,NA
"10","X_IHTYDKWOUB","English","0:26.7",1,0,0,0,0,0,0,0,1,0,0,0,0,1,0,0,1,0,1,0,0,1,0,0,78,"English",1,0,0,0,0,0,1,0,"1.0","0","0",0,1,0,0,0,0,0,1,0,0,0,0,1,0,1,0,1,0,1,0,1,"English","one_play_two_responses","stimulus34_B","orderSI=60","orderAI=23","0:6.3","23;",0,1,NA,NA,NA,NA,NA,NA,NA,NA,NA,NA,NA,NA,NA,NA,NA,NA,NA,NA,NA,NA,NA,NA,NA,NA,NA,NA,NA,NA,NA,NA,NA,NA,NA,NA,NA,NA,NA,NA,NA,NA,NA,NA,NA,NA,NA,"B","B",1,NA,NA,NA
"11","X_IHTYDKWOUB","English","0:26.7",1,0,0,0,0,0,0,0,1,0,0,0,0,1,0,0,1,0,1,0,0,1,0,0,78,"English",1,0,0,0,0,0,1,0,"1.0","0","0",0,1,0,0,0,0,0,1,0,0,0,0,1,0,1,0,1,0,1,0,1,"English","one_play_two_responses","stimulus82_B","orderSI=44","orderAI=24","0:3.8","24;",0,1,NA,4.71831000600405,3.87537830462639,410.492970522352,372.036317244134,4.64104687908722,3.87968162779801,385.206890964239,345.291664874023,17.0397305207379,14.1091743330373,1482.4565553042,1340.37156163855,12.2066711841878,8.94712395989206,1013.15370828759,858.923900149637,"B","amelia_vowels_22","amelia_vowels_30","ewan_21","amelia_vowels.wav",57.64913,58.41293,"HEEDI","amelia","V","I","i","amelia_vowels.wav",79.21868,79.88909,"HUHDI","amelia","V","I","ʌ","ewan.wav",60.9271,61.7525,"HEEDI","ewan","V","I","i","B","B",1,-0.84293170137766,0.82134880914882,-0.196807400866534
"12","X_IHTYDKWOUB","English","0:26.7",1,0,0,0,0,0,0,0,1,0,0,0,0,1,0,0,1,0,1,0,0,1,0,0,78,"English",1,0,0,0,0,0,1,0,"1.0","0","0",0,1,0,0,0,0,0,1,0,0,0,0,1,0,1,0,1,0,1,0,1,"English","one_play_two_responses","stimulus142_B","orderSI=16","orderAI=25","0:4.1","25;",0,1,NA,NA,NA,NA,NA,NA,NA,NA,NA,NA,NA,NA,NA,NA,NA,NA,NA,NA,NA,NA,NA,NA,NA,NA,NA,NA,NA,NA,NA,NA,NA,NA,NA,NA,NA,NA,NA,NA,NA,NA,NA,NA,NA,NA,NA,"B","B",1,NA,NA,NA
"13","X_IHTYDKWOUB","English","0:26.7",1,0,0,0,0,0,0,0,1,0,0,0,0,1,0,0,1,0,1,0,0,1,0,0,78,"English",1,0,0,0,0,0,1,0,"1.0","0","0",0,1,0,0,0,0,0,1,0,0,0,0,1,0,1,0,1,0,1,0,1,"English","one_play_two_responses","stimulus129_A","orderSI=29","orderAI=26","0:4.1","26;",0,1,NA,4.85998935945358,4.11275680341429,335.339265802297,279.667462632172,4.05337553908388,3.42602549013817,275.629536657704,232.969733329395,17.5781409033993,14.7573219204716,1212.89172233455,1003.49789059207,10.7403433730469,8.94944648578029,741.083692740239,608.56236103306,"A","ewan_71","ewan_56","amelia_consonants_23","ewan.wav",210.7425,211.2825,"EEKEE","ewan","C","I","k","ewan.wav",168.7025,169.3025,"EEPEE","ewan","C","I","p","amelia_consonants.wav",61.4825,62.1525,"EEKEE","amelia","C","I","k","B","A",0,-0.747232556039291,0.84624810863304,-0.166942689756035
"14","X_IHTYDKWOUB","English","0:26.7",1,0,0,0,0,0,0,0,1,0,0,0,0,1,0,0,1,0,1,0,0,1,0,0,78,"English",1,0,0,0,0,0,1,0,"1.0","0","0",0,1,0,0,0,0,0,1,0,0,0,0,1,0,1,0,1,0,1,0,1,"English","one_play_two_responses","stimulus135_B","orderSI=23","orderAI=27","0:2.5","27;",0,1,NA,6.43990422070635,4.11275680341429,444.353391228738,279.667462632172,4.16230383122121,3.42602549013817,287.198964354263,232.969733329395,23.2935182875366,14.7573219204716,1607.25276184002,1003.49789059207,11.2202605255583,8.94944648578029,841.519539416869,608.56236103306,"B","ewan_71","ewan_96","amelia_consonants_23","ewan.wav",210.7425,211.2825,"EEKEE","ewan","C","I","k","ewan.wav",276.7625,277.3325,"EESHEE","ewan","C","I","ʃ","amelia_consonants.wav",61.4825,62.1525,"EEKEE","amelia","C","I","k","B","B",1,-2.32714741729206,0.638636330986176,-0.448420108703412
"15","X_IHTYDKWOUB","English","0:26.7",1,0,0,0,0,0,0,0,1,0,0,0,0,1,0,0,1,0,1,0,0,1,0,0,78,"English",1,0,0,0,0,0,1,0,"1.0","0","0",0,1,0,0,0,0,0,1,0,0,0,0,1,0,1,0,1,0,1,0,1,"English","one_play_two_responses","stimulus135_B","orderSI=23","orderAI=27","0:2.7","27;",0,1,NA,6.43990422070635,4.11275680341429,444.353391228738,279.667462632172,4.16230383122121,3.42602549013817,287.198964354263,232.969733329395,23.2935182875366,14.7573219204716,1607.25276184002,1003.49789059207,11.2202605255583,8.94944648578029,841.519539416869,608.56236103306,"B","ewan_71","ewan_96","amelia_consonants_23","ewan.wav",210.7425,211.2825,"EEKEE","ewan","C","I","k","ewan.wav",276.7625,277.3325,"EESHEE","ewan","C","I","ʃ","amelia_consonants.wav",61.4825,62.1525,"EEKEE","amelia","C","I","k","B","B",1,-2.32714741729206,0.638636330986176,-0.448420108703412
"16","X_IHTYDKWOUB","English","0:26.7",1,0,0,0,0,0,0,0,1,0,0,0,0,1,0,0,1,0,1,0,0,1,0,0,78,"English",1,0,0,0,0,0,1,0,"1.0","0","0",0,1,0,0,0,0,0,1,0,0,0,0,1,0,1,0,1,0,1,0,1,"English","one_play_two_responses","stimulus47_B","orderSI=47","orderAI=28","0:5.9","28;",1,0,NA,NA,NA,NA,NA,NA,NA,NA,NA,NA,NA,NA,NA,NA,NA,NA,NA,NA,NA,NA,NA,NA,NA,NA,NA,NA,NA,NA,NA,NA,NA,NA,NA,NA,NA,NA,NA,NA,NA,NA,NA,NA,NA,NA,NA,"A","B",0,NA,NA,NA
"17","X_IHTYDKWOUB","English","0:26.7",1,0,0,0,0,0,0,0,1,0,0,0,0,1,0,0,1,0,1,0,0,1,0,0,78,"English",1,0,0,0,0,0,1,0,"1.0","0","0",0,1,0,0,0,0,0,1,0,0,0,0,1,0,1,0,1,0,1,0,1,"English","one_play_two_responses","stimulus47_B","orderSI=47","orderAI=28","0:7.1","28;",0,1,NA,NA,NA,NA,NA,NA,NA,NA,NA,NA,NA,NA,NA,NA,NA,NA,NA,NA,NA,NA,NA,NA,NA,NA,NA,NA,NA,NA,NA,NA,NA,NA,NA,NA,NA,NA,NA,NA,NA,NA,NA,NA,NA,NA,NA,"B","B",1,NA,NA,NA
"18","X_IHTYDKWOUB","English","0:26.7",1,0,0,0,0,0,0,0,1,0,0,0,0,1,0,0,1,0,1,0,0,1,0,0,78,"English",1,0,0,0,0,0,1,0,"1.0","0","0",0,1,0,0,0,0,0,1,0,0,0,0,1,0,1,0,1,0,1,0,1,"English","one_play_two_responses","stimulus132_A","orderSI=26","orderAI=29","0:4.9","29;",0,1,NA,4.90969222579509,4.01669947148956,333.859071354066,265.102165118311,5.52672677265288,4.8822503414671,359.237240222437,307.581771512427,18.0439165552814,14.8083061718698,1245.03024231441,977.348207343409,13.0418624856543,10.7972105135754,886.846649024494,712.615893895977,"A","amelia_consonants_3","amelia_consonants_20","ewan_50","amelia_consonants.wav",7.31359,7.93251,"APAH","amelia","C","A","p","amelia_consonants.wav",53.0271,53.6525,"AKAH","amelia","C","A","k","ewan.wav",152.8525,153.4425,"APAH","ewan","C","A","p","B","A",0,-0.89299275430553,0.818116347575959,-0.200750718293276
"19","X_IHTYDKWOUB","English","0:26.7",1,0,0,0,0,0,0,0,1,0,0,0,0,1,0,0,1,0,1,0,0,1,0,0,78,"English",1,0,0,0,0,0,1,0,"1.0","0","0",0,1,0,0,0,0,0,1,0,0,0,0,1,0,1,0,1,0,1,0,1,"English","one_play_two_responses","stimulus139_B","orderSI=19","orderAI=30","0:6.4","30;",0,1,NA,5.59484215891698,4.11275680341429,386.044108965272,279.667462632172,4.04369233924055,3.42602549013817,279.014771407598,232.969733329395,19.9346902554088,14.7573219204716,1375.4936276232,1003.49789059207,11.1471874508642,8.94944648578029,769.155934109633,608.56236103306,"B","ewan_71","ewan_87","amelia_consonants_23","ewan.wav",210.7425,211.2825,"EEKEE","ewan","C","I","k","ewan.wav",254.4625,255.0425,"EESSEE","ewan","C","I","s","amelia_consonants.wav",61.4825,62.1525,"EEKEE","amelia","C","I","k","B","B",1,-1.48208535550269,0.73509791457824,-0.30775157152866
"20","X_IHTYDKWOUB","English","0:26.7",1,0,0,0,0,0,0,0,1,0,0,0,0,1,0,0,1,0,1,0,0,1,0,0,78,"English",1,0,0,0,0,0,1,0,"1.0","0","0",0,1,0,0,0,0,0,1,0,0,0,0,1,0,1,0,1,0,1,0,1,"English","one_play_two_responses","stimulus137_A","orderSI=21","orderAI=31","0:4.8","31;",0,1,NA,4.68007921470597,3.76222484920206,341.645782673536,267.117964293346,3.86749955321517,3.70289034107935,274.592468278277,262.905214216634,17.2357182963343,14.1573448789912,1240.97171733607,1005.17148640837,10.91878613261,8.99329123974035,775.233815415312,638.523678021565,"A","ewan_92","ewan_68","amelia_consonants_42","ewan.wav",266.7625,267.2825,"ASHAH","ewan","C","A","ʃ","ewan.wav",201.2425,201.7625,"AKAH","ewan","C","A","k","amelia_consonants.wav",112.2325,112.9325,"ASHAH","amelia","C","A","ʃ","B","A",0,-0.91785436550391,0.80388059188832,-0.218304538384835
"21","X_IHTYDKWOUB","English","0:26.7",1,0,0,0,0,0,0,0,1,0,0,0,0,1,0,0,1,0,1,0,0,1,0,0,78,"English",1,0,0,0,0,0,1,0,"1.0","0","0",0,1,0,0,0,0,0,1,0,0,0,0,1,0,1,0,1,0,1,0,1,"English","one_play_two_responses","stimulus131_B","orderSI=27","orderAI=32","0:5.7","32;",1,0,NA,4.85998935945358,4.48806656717853,335.339265802297,287.236260299426,4.05337553908388,4.06553726026763,275.629536657704,256.128847396861,17.5781409033993,16.7378153277514,1212.89172233455,1037.74455032059,10.7403433730469,9.9461131381046,741.083692740239,636.551240838694,"B","amelia_consonants_7","amelia_consonants_23","ewan_56","amelia_consonants.wav",17.98056,18.54394,"EEPEE","amelia","C","I","p","amelia_consonants.wav",61.4825,62.1525,"EEKEE","amelia","C","I","k","ewan.wav",168.7025,169.3025,"EEPEE","ewan","C","I","p","A","B",0,-0.371922792275051,0.923472508936343,-0.0796142481277331
"22","X_IHTYDKWOUB","English","0:26.7",1,0,0,0,0,0,0,0,1,0,0,0,0,1,0,0,1,0,1,0,0,1,0,0,78,"English",1,0,0,0,0,0,1,0,"1.0","0","0",0,1,0,0,0,0,0,1,0,0,0,0,1,0,1,0,1,0,1,0,1,"English","one_play_two_responses","stimulus37_A","orderSI=57","orderAI=33","0:9.6","33;",1,0,NA,NA,NA,NA,NA,NA,NA,NA,NA,NA,NA,NA,NA,NA,NA,NA,NA,NA,NA,NA,NA,NA,NA,NA,NA,NA,NA,NA,NA,NA,NA,NA,NA,NA,NA,NA,NA,NA,NA,NA,NA,NA,NA,NA,NA,"A","A",1,NA,NA,NA
"23","X_IHTYDKWOUB","English","0:26.7",1,0,0,0,0,0,0,0,1,0,0,0,0,1,0,0,1,0,1,0,0,1,0,0,78,"English",1,0,0,0,0,0,1,0,"1.0","0","0",0,1,0,0,0,0,0,1,0,0,0,0,1,0,1,0,1,0,1,0,1,"English","one_play_two_responses","stimulus37_A","orderSI=57","orderAI=33","0:9.7","33;",0,1,NA,NA,NA,NA,NA,NA,NA,NA,NA,NA,NA,NA,NA,NA,NA,NA,NA,NA,NA,NA,NA,NA,NA,NA,NA,NA,NA,NA,NA,NA,NA,NA,NA,NA,NA,NA,NA,NA,NA,NA,NA,NA,NA,NA,NA,"B","A",0,NA,NA,NA
"24","X_IHTYDKWOUB","English","0:26.7",1,0,0,0,0,0,0,0,1,0,0,0,0,1,0,0,1,0,1,0,0,1,0,0,78,"English",1,0,0,0,0,0,1,0,"1.0","0","0",0,1,0,0,0,0,0,1,0,0,0,0,1,0,1,0,1,0,1,0,1,"English","one_play_two_responses","stimulus37_A","orderSI=57","orderAI=33","0:9.8","33;",0,1,NA,NA,NA,NA,NA,NA,NA,NA,NA,NA,NA,NA,NA,NA,NA,NA,NA,NA,NA,NA,NA,NA,NA,NA,NA,NA,NA,NA,NA,NA,NA,NA,NA,NA,NA,NA,NA,NA,NA,NA,NA,NA,NA,NA,NA,"B","A",0,NA,NA,NA
"25","X_IHTYDKWOUB","English","0:26.7",1,0,0,0,0,0,0,0,1,0,0,0,0,1,0,0,1,0,1,0,0,1,0,0,78,"English",1,0,0,0,0,0,1,0,"1.0","0","0",0,1,0,0,0,0,0,1,0,0,0,0,1,0,1,0,1,0,1,0,1,"English","one_play_two_responses","stimulus37_A","orderSI=57","orderAI=33","0:10.0","33;",0,1,NA,NA,NA,NA,NA,NA,NA,NA,NA,NA,NA,NA,NA,NA,NA,NA,NA,NA,NA,NA,NA,NA,NA,NA,NA,NA,NA,NA,NA,NA,NA,NA,NA,NA,NA,NA,NA,NA,NA,NA,NA,NA,NA,NA,NA,"B","A",0,NA,NA,NA
"26","X_IHTYDKWOUB","English","0:26.7",1,0,0,0,0,0,0,0,1,0,0,0,0,1,0,0,1,0,1,0,0,1,0,0,78,"English",1,0,0,0,0,0,1,0,"1.0","0","0",0,1,0,0,0,0,0,1,0,0,0,0,1,0,1,0,1,0,1,0,1,"English","one_play_two_responses","stimulus37_A","orderSI=57","orderAI=33","0:10.0","33;",1,0,NA,NA,NA,NA,NA,NA,NA,NA,NA,NA,NA,NA,NA,NA,NA,NA,NA,NA,NA,NA,NA,NA,NA,NA,NA,NA,NA,NA,NA,NA,NA,NA,NA,NA,NA,NA,NA,NA,NA,NA,NA,NA,NA,NA,NA,"A","A",1,NA,NA,NA
"27","X_IHTYDKWOUB","English","0:26.7",1,0,0,0,0,0,0,0,1,0,0,0,0,1,0,0,1,0,1,0,0,1,0,0,78,"English",1,0,0,0,0,0,1,0,"1.0","0","0",0,1,0,0,0,0,0,1,0,0,0,0,1,0,1,0,1,0,1,0,1,"English","one_play_two_responses","stimulus37_A","orderSI=57","orderAI=33","0:10.1","33;",0,1,NA,NA,NA,NA,NA,NA,NA,NA,NA,NA,NA,NA,NA,NA,NA,NA,NA,NA,NA,NA,NA,NA,NA,NA,NA,NA,NA,NA,NA,NA,NA,NA,NA,NA,NA,NA,NA,NA,NA,NA,NA,NA,NA,NA,NA,"B","A",0,NA,NA,NA
"28","X_IHTYDKWOUB","English","0:26.7",1,0,0,0,0,0,0,0,1,0,0,0,0,1,0,0,1,0,1,0,0,1,0,0,78,"English",1,0,0,0,0,0,1,0,"1.0","0","0",0,1,0,0,0,0,0,1,0,0,0,0,1,0,1,0,1,0,1,0,1,"English","one_play_two_responses","stimulus37_A","orderSI=57","orderAI=33","0:10.7","33;",1,0,NA,NA,NA,NA,NA,NA,NA,NA,NA,NA,NA,NA,NA,NA,NA,NA,NA,NA,NA,NA,NA,NA,NA,NA,NA,NA,NA,NA,NA,NA,NA,NA,NA,NA,NA,NA,NA,NA,NA,NA,NA,NA,NA,NA,NA,"A","A",1,NA,NA,NA
"29","X_IHTYDKWOUB","English","0:26.7",1,0,0,0,0,0,0,0,1,0,0,0,0,1,0,0,1,0,1,0,0,1,0,0,78,"English",1,0,0,0,0,0,1,0,"1.0","0","0",0,1,0,0,0,0,0,1,0,0,0,0,1,0,1,0,1,0,1,0,1,"English","one_play_two_responses","stimulus141_A","orderSI=17","orderAI=34","0:6.6","34;",1,0,NA,4.827357620928,4.58066385646578,386.18860967424,366.453108517263,4.14313735613217,4.50512958002086,319.021576422177,346.894977661606,17.7786470949564,16.8691239178949,1404.51312050156,1349.52991343159,11.1464200899709,11.0236757260067,858.274346927763,848.823030902515,"A","ewan_83","ewan_68","amelia_consonants_34","ewan.wav",244.4025,244.9725,"ASSAH","ewan","C","A","s","ewan.wav",201.2425,201.7625,"AKAH","ewan","C","A","k","amelia_consonants.wav",91.35499,92.1125,"ASSAH","amelia","C","A","s","A","A",1,-0.24669376446222,0.948896729052612,-0.0524553071022506
"30","X_IHTYDKWOUB","English","0:26.7",1,0,0,0,0,0,0,0,1,0,0,0,0,1,0,0,1,0,1,0,0,1,0,0,78,"English",1,0,0,0,0,0,1,0,"1.0","0","0",0,1,0,0,0,0,0,1,0,0,0,0,1,0,1,0,1,0,1,0,1,"English","one_play_two_responses","stimulus141_A","orderSI=17","orderAI=34","0:6.9","34;",0,1,NA,4.827357620928,4.58066385646578,386.18860967424,366.453108517263,4.14313735613217,4.50512958002086,319.021576422177,346.894977661606,17.7786470949564,16.8691239178949,1404.51312050156,1349.52991343159,11.1464200899709,11.0236757260067,858.274346927763,848.823030902515,"A","ewan_83","ewan_68","amelia_consonants_34","ewan.wav",244.4025,244.9725,"ASSAH","ewan","C","A","s","ewan.wav",201.2425,201.7625,"AKAH","ewan","C","A","k","amelia_consonants.wav",91.35499,92.1125,"ASSAH","amelia","C","A","s","B","A",0,-0.24669376446222,0.948896729052612,-0.0524553071022506
"31","X_IHTYDKWOUB","English","0:26.7",1,0,0,0,0,0,0,0,1,0,0,0,0,1,0,0,1,0,1,0,0,1,0,0,78,"English",1,0,0,0,0,0,1,0,"1.0","0","0",0,1,0,0,0,0,0,1,0,0,0,0,1,0,1,0,1,0,1,0,1,"English","one_play_two_responses","stimulus141_A","orderSI=17","orderAI=34","0:7.1","34;",0,1,NA,4.827357620928,4.58066385646578,386.18860967424,366.453108517263,4.14313735613217,4.50512958002086,319.021576422177,346.894977661606,17.7786470949564,16.8691239178949,1404.51312050156,1349.52991343159,11.1464200899709,11.0236757260067,858.274346927763,848.823030902515,"A","ewan_83","ewan_68","amelia_consonants_34","ewan.wav",244.4025,244.9725,"ASSAH","ewan","C","A","s","ewan.wav",201.2425,201.7625,"AKAH","ewan","C","A","k","amelia_consonants.wav",91.35499,92.1125,"ASSAH","amelia","C","A","s","B","A",0,-0.24669376446222,0.948896729052612,-0.0524553071022506
"32","X_IHTYDKWOUB","English","0:26.7",1,0,0,0,0,0,0,0,1,0,0,0,0,1,0,0,1,0,1,0,0,1,0,0,78,"English",1,0,0,0,0,0,1,0,"1.0","0","0",0,1,0,0,0,0,0,1,0,0,0,0,1,0,1,0,1,0,1,0,1,"English","one_play_two_responses","stimulus141_A","orderSI=17","orderAI=34","0:7.3","34;",0,1,NA,4.827357620928,4.58066385646578,386.18860967424,366.453108517263,4.14313735613217,4.50512958002086,319.021576422177,346.894977661606,17.7786470949564,16.8691239178949,1404.51312050156,1349.52991343159,11.1464200899709,11.0236757260067,858.274346927763,848.823030902515,"A","ewan_83","ewan_68","amelia_consonants_34","ewan.wav",244.4025,244.9725,"ASSAH","ewan","C","A","s","ewan.wav",201.2425,201.7625,"AKAH","ewan","C","A","k","amelia_consonants.wav",91.35499,92.1125,"ASSAH","amelia","C","A","s","B","A",0,-0.24669376446222,0.948896729052612,-0.0524553071022506
"33","X_IHTYDKWOUB","English","0:26.7",1,0,0,0,0,0,0,0,1,0,0,0,0,1,0,0,1,0,1,0,0,1,0,0,78,"English",1,0,0,0,0,0,1,0,"1.0","0","0",0,1,0,0,0,0,0,1,0,0,0,0,1,0,1,0,1,0,1,0,1,"English","one_play_two_responses","stimulus141_A","orderSI=17","orderAI=34","0:7.6","34;",1,0,NA,4.827357620928,4.58066385646578,386.18860967424,366.453108517263,4.14313735613217,4.50512958002086,319.021576422177,346.894977661606,17.7786470949564,16.8691239178949,1404.51312050156,1349.52991343159,11.1464200899709,11.0236757260067,858.274346927763,848.823030902515,"A","ewan_83","ewan_68","amelia_consonants_34","ewan.wav",244.4025,244.9725,"ASSAH","ewan","C","A","s","ewan.wav",201.2425,201.7625,"AKAH","ewan","C","A","k","amelia_consonants.wav",91.35499,92.1125,"ASSAH","amelia","C","A","s","A","A",1,-0.24669376446222,0.948896729052612,-0.0524553071022506
"34","X_IHTYDKWOUB","English","0:26.7",1,0,0,0,0,0,0,0,1,0,0,0,0,1,0,0,1,0,1,0,0,1,0,0,78,"English",1,0,0,0,0,0,1,0,"1.0","0","0",0,1,0,0,0,0,0,1,0,0,0,0,1,0,1,0,1,0,1,0,1,"English","one_play_two_responses","stimulus136_A","orderSI=22","orderAI=35","0:6.1","35;",0,1,NA,NA,NA,NA,NA,NA,NA,NA,NA,NA,NA,NA,NA,NA,NA,NA,NA,NA,NA,NA,NA,NA,NA,NA,NA,NA,NA,NA,NA,NA,NA,NA,NA,NA,NA,NA,NA,NA,NA,NA,NA,NA,NA,NA,NA,"B","A",0,NA,NA,NA
"35","X_IHTYDKWOUB","English","0:26.7",1,0,0,0,0,0,0,0,1,0,0,0,0,1,0,0,1,0,1,0,0,1,0,0,78,"English",1,0,0,0,0,0,1,0,"1.0","0","0",0,1,0,0,0,0,0,1,0,0,0,0,1,0,1,0,1,0,1,0,1,"English","one_play_two_responses","stimulus45_A","orderSI=49","orderAI=36","0:5.6","36;",0,1,NA,NA,NA,NA,NA,NA,NA,NA,NA,NA,NA,NA,NA,NA,NA,NA,NA,NA,NA,NA,NA,NA,NA,NA,NA,NA,NA,NA,NA,NA,NA,NA,NA,NA,NA,NA,NA,NA,NA,NA,NA,NA,NA,NA,NA,"B","A",0,NA,NA,NA
"36","X_IHTYDKWOUB","English","0:26.7",1,0,0,0,0,0,0,0,1,0,0,0,0,1,0,0,1,0,1,0,0,1,0,0,78,"English",1,0,0,0,0,0,1,0,"1.0","0","0",0,1,0,0,0,0,0,1,0,0,0,0,1,0,1,0,1,0,1,0,1,"English","one_play_two_responses","stimulus46_B","orderSI=48","orderAI=37","0:7.0","37;",0,1,NA,4.05628738321431,4.95926823694916,336.671852806788,376.904386008136,4.28570110255016,4.24158644606135,334.284685998912,318.118983454601,14.3834337551652,18.4878260846476,1222.59186918904,1405.07478243322,10.4249597129284,11.2910784776832,813.146857608412,846.830885826241,"B","ewan_8","ewan_29","amelia_vowels_5","ewan.wav",22.3965,23.01587,"HADI","ewan","V","I","ɑ","ewan.wav",85.39155,86.1325,"HUHDI","ewan","V","I","ʌ","amelia_vowels.wav",12.5659,13.30968,"HADI","amelia","V","I","ɑ","B","B",1,0.902980853734849,1.22261264265238,0.200990079351089
"37","X_IHTYDKWOUB","English","0:26.7",1,0,0,0,0,0,0,0,1,0,0,0,0,1,0,0,1,0,1,0,0,1,0,0,78,"English",1,0,0,0,0,0,1,0,"1.0","0","0",0,1,0,0,0,0,0,1,0,0,0,0,1,0,1,0,1,0,1,0,1,"English","one_play_two_responses","stimulus134_B","orderSI=24","orderAI=38","0:4.6","38;",1,0,NA,NA,NA,NA,NA,NA,NA,NA,NA,NA,NA,NA,NA,NA,NA,NA,NA,NA,NA,NA,NA,NA,NA,NA,NA,NA,NA,NA,NA,NA,NA,NA,NA,NA,NA,NA,NA,NA,NA,NA,NA,NA,NA,NA,NA,"A","B",0,NA,NA,NA
"38","X_IHTYDKWOUB","English","0:26.7",1,0,0,0,0,0,0,0,1,0,0,0,0,1,0,0,1,0,1,0,0,1,0,0,78,"English",1,0,0,0,0,0,1,0,"1.0","0","0",0,1,0,0,0,0,0,1,0,0,0,0,1,0,1,0,1,0,1,0,1,"English","one_play_two_responses","stimulus81_A","orderSI=45","orderAI=39","0:2.0","39;",0,1,NA,5.60568984893095,3.87537830462639,470.8779473102,372.036317244134,4.79583988783235,3.87968162779801,374.075511250923,345.291664874023,20.6308130131536,14.1091743330373,1732.9882931049,1340.37156163855,14.2192944096053,8.94712395989206,1123.32425835882,858.923900149637,"A","ewan_21","ewan_29","amelia_vowels_22","ewan.wav",60.9271,61.7525,"HEEDI","ewan","V","I","i","ewan.wav",85.39155,86.1325,"HUHDI","ewan","V","I","ʌ","amelia_vowels.wav",57.64913,58.41293,"HEEDI","amelia","V","I","i","B","A",0,-1.73031154430456,0.69132941869152,-0.369138841328802
"39","X_IHTYDKWOUB","English","0:26.7",1,0,0,0,0,0,0,0,1,0,0,0,0,1,0,0,1,0,1,0,0,1,0,0,78,"English",1,0,0,0,0,0,1,0,"1.0","0","0",0,1,0,0,0,0,0,1,0,0,0,0,1,0,1,0,1,0,1,0,1,"English","one_play_two_responses","stimulus89_A","orderSI=37","orderAI=40","0:3.1","40;",0,1,NA,3.7896866837052,4.06298053366034,329.702741482353,357.54228696211,4.45241793123959,4.77431644557525,342.836180705449,381.94531564602,14.4801475721764,15.5884827142336,1259.77283877935,1356.19799613833,10.5390145829327,11.4607654932482,853.660181217551,939.782770446356,"A","amelia_vowels_33","amelia_vowels_25","ewan_34","amelia_vowels.wav",87.27244,88.0325,"HOODAH","amelia","V","A","ʊ","amelia_vowels.wav",66.85124,67.6025,"HUHDAH","amelia","V","A","ʌ","ewan.wav",99.9925,100.7325,"HOODAH","ewan","V","A","ʊ","B","A",0,0.27329384995514,1.07211515694167,0.0696334793994347
"40","X_IHTYDKWOUB","English","0:26.7",1,0,0,0,0,0,0,0,1,0,0,0,0,1,0,0,1,0,1,0,0,1,0,0,78,"English",1,0,0,0,0,0,1,0,"1.0","0","0",0,1,0,0,0,0,0,1,0,0,0,0,1,0,1,0,1,0,1,0,1,"English","one_play_two_responses","stimulus93_A","orderSI=33","orderAI=41","0:5.8","41;",1,0,NA,3.7896866837052,3.95044152940679,329.702741482353,327.886646940764,4.45241793123959,4.44356003437991,342.836180705449,368.815482853533,14.4801475721764,15.3384007596681,1259.77283877935,1273.08726305245,10.5390145829327,10.8312483699675,853.660181217551,898.993614707303,"A","ewan_28","ewan_34","amelia_vowels_25","ewan.wav",81.0625,81.7525,"HUHDAH","ewan","V","A","ʌ","ewan.wav",99.9925,100.7325,"HOODAH","ewan","V","A","ʊ","amelia_vowels.wav",66.85124,67.6025,"HUHDAH","amelia","V","A","ʌ","A","A",1,0.16075484570159,1.04241903331819,0.0415440057928361
"41","X_IHTYDKWOUB","English","0:26.7",1,0,0,0,0,0,0,0,1,0,0,0,0,1,0,0,1,0,1,0,0,1,0,0,78,"English",1,0,0,0,0,0,1,0,"1.0","0","0",0,1,0,0,0,0,0,1,0,0,0,0,1,0,1,0,1,0,1,0,1,"English","one_play_two_responses","stimulus95_B","orderSI=31","orderAI=42","0:0.8","42;",0,1,NA,4.95550523121399,4.06298053366034,376.618397572263,357.54228696211,5.2302885656825,4.77431644557525,392.271642426187,381.94531564602,17.6028784920561,15.5884827142336,1373.02452238038,1356.19799613833,11.3301628986247,11.4607654932482,929.073357687226,939.782770446356,"B","amelia_vowels_33","amelia_vowels_41","ewan_34","amelia_vowels.wav",87.27244,88.0325,"HOODAH","amelia","V","A","ʊ","amelia_vowels.wav",107.22875,107.96148,"WHODAH","amelia","V","A","u","ewan.wav",99.9925,100.7325,"HOODAH","ewan","V","A","ʊ","B","B",1,-0.892524697553649,0.819892290309418,-0.198582300632634
"42","X_IHTYDKWOUB","English","0:26.7",1,0,0,0,0,0,0,0,1,0,0,0,0,1,0,0,1,0,1,0,0,1,0,0,78,"English",1,0,0,0,0,0,1,0,"1.0","0","0",0,1,0,0,0,0,0,1,0,0,0,0,1,0,1,0,1,0,1,0,1,"English","one_play_two_responses","stimulus41_A","orderSI=53","orderAI=43","0:9.4","43;",0,1,NA,NA,NA,NA,NA,NA,NA,NA,NA,NA,NA,NA,NA,NA,NA,NA,NA,NA,NA,NA,NA,NA,NA,NA,NA,NA,NA,NA,NA,NA,NA,NA,NA,NA,NA,NA,NA,NA,NA,NA,NA,NA,NA,NA,NA,"B","A",0,NA,NA,NA
"43","X_IHTYDKWOUB","English","0:26.7",1,0,0,0,0,0,0,0,1,0,0,0,0,1,0,0,1,0,1,0,0,1,0,0,78,"English",1,0,0,0,0,0,1,0,"1.0","0","0",0,1,0,0,0,0,0,1,0,0,0,0,1,0,1,0,1,0,1,0,1,"English","one_play_two_responses","stimulus144_A","orderSI=14","orderAI=44","0:5.0","44;",0,1,NA,NA,NA,NA,NA,NA,NA,NA,NA,NA,NA,NA,NA,NA,NA,NA,NA,NA,NA,NA,NA,NA,NA,NA,NA,NA,NA,NA,NA,NA,NA,NA,NA,NA,NA,NA,NA,NA,NA,NA,NA,NA,NA,NA,NA,"B","A",0,NA,NA,NA
"44","X_IHTYDKWOUB","English","0:26.7",1,0,0,0,0,0,0,0,1,0,0,0,0,1,0,0,1,0,1,0,0,1,0,0,78,"English",1,0,0,0,0,0,1,0,"1.0","0","0",0,1,0,0,0,0,0,1,0,0,0,0,1,0,1,0,1,0,1,0,1,"English","one_play_two_responses","stimulus33_A","orderSI=61","orderAI=45","0:6.3","45;",0,1,NA,4.19277961696579,4.31714265346246,322.844030506366,345.371412276997,3.94824920549333,3.46955165020869,296.118690412,274.094580366487,14.050918299719,15.629286450248,1081.92070907836,1250.34291601984,9.9311722820639,8.50808189583447,754.769093436857,663.630387875089,"A","amelia_consonants_55","amelia_consonants_46","ewan_101","amelia_consonants.wav",145.1325,145.8925,"EETHEE","amelia","C","I","θ","amelia_consonants.wav",121.8625,122.6025,"EESHEE","amelia","C","I","ʃ","ewan.wav",290.0925,290.7225,"EETHEE","ewan","C","I","θ","B","A",0,0.124363036496669,1.02966123857153,0.0292298535531088
"45","X_IHTYDKWOUB","English","0:26.7",1,0,0,0,0,0,0,0,1,0,0,0,0,1,0,0,1,0,1,0,0,1,0,0,78,"English",1,0,0,0,0,0,1,0,"1.0","0","0",0,1,0,0,0,0,0,1,0,0,0,0,1,0,1,0,1,0,1,0,1,"English","one_play_two_responses","stimulus133_A","orderSI=25","orderAI=46","0:6.3","46;",1,0,NA,4.60941233090876,4.11275680341429,350.315337149066,279.667462632172,3.61620617586521,3.42602549013817,271.215463189891,232.969733329395,15.492404034098,14.7573219204716,1177.42270659145,1003.49789059207,10.5854990629712,8.94944648578029,793.912429722837,608.56236103306,"A","amelia_consonants_23","amelia_consonants_46","ewan_71","amelia_consonants.wav",61.4825,62.1525,"EEKEE","amelia","C","I","k","amelia_consonants.wav",121.8625,122.6025,"EESHEE","amelia","C","I","ʃ","ewan.wav",210.7425,211.2825,"EEKEE","ewan","C","I","k","A","A",1,-0.49665552749447,0.892251876846836,-0.114006813115244
"46","X_IHTYDKWOUB","English","0:26.7",1,0,0,0,0,0,0,0,1,0,0,0,0,1,0,0,1,0,1,0,0,1,0,0,78,"English",1,0,0,0,0,0,1,0,"1.0","0","0",0,1,0,0,0,0,0,1,0,0,0,0,1,0,1,0,1,0,1,0,1,"English","one_play_two_responses","stimulus39_B","orderSI=55","orderAI=47","0:5.2","47;",0,1,NA,NA,NA,NA,NA,NA,NA,NA,NA,NA,NA,NA,NA,NA,NA,NA,NA,NA,NA,NA,NA,NA,NA,NA,NA,NA,NA,NA,NA,NA,NA,NA,NA,NA,NA,NA,NA,NA,NA,NA,NA,NA,NA,NA,NA,"B","B",1,NA,NA,NA
"47","X_IHTYDKWOUB","English","0:26.7",1,0,0,0,0,0,0,0,1,0,0,0,0,1,0,0,1,0,1,0,0,1,0,0,78,"English",1,0,0,0,0,0,1,0,"1.0","0","0",0,1,0,0,0,0,0,1,0,0,0,0,1,0,1,0,1,0,1,0,1,"English","one_play_two_responses","stimulus88_A","orderSI=38","orderAI=48","0:4.9","48;",0,1,NA,4.49608017112482,4.18237789471523,409.143295572358,368.04925473494,4.36875747079366,4.37135386695183,388.819414900636,380.307786424809,16.1920450383012,15.1472904422494,1473.47609848541,1332.96155891795,10.3204288688742,9.75093569430409,980.440742543053,848.331405404456,"A","ewan_46","ewan_21","amelia_vowels_48","ewan.wav",134.9925,135.7425,"WHODI","ewan","V","I","u","ewan.wav",60.9271,61.7525,"HEEDI","ewan","V","I","i","amelia_vowels.wav",123.87499,124.5925,"WHODI","amelia","V","I","u","B","A",0,-0.31370227640959,0.93022760616586,-0.0723259849654963
"48","X_IHTYDKWOUB","English","0:26.7",1,0,0,0,0,0,0,0,1,0,0,0,0,1,0,0,1,0,1,0,0,1,0,0,78,"English",1,0,0,0,0,0,1,0,"1.0","0","0",0,1,0,0,0,0,0,1,0,0,0,0,1,0,1,0,1,0,1,0,1,"English","one_play_two_responses","stimulus91_B","orderSI=35","orderAI=49","0:4.4","49;",0,1,NA,4.83820054077747,3.9664110973132,420.92344704764,325.245709979682,4.91191063174911,4.24074807313773,397.864761171678,322.296853558468,17.9271058311634,14.754922362714,1559.65820731121,1224.65855610526,11.327596738206,10.6179828768912,974.173319485718,796.348715766843,"B","ewan_37","ewan_29","amelia_vowels_39","ewan.wav",109.0925,109.8025,"HOODI","ewan","V","I","ʊ","ewan.wav",85.39155,86.1325,"HUHDI","ewan","V","I","ʌ","amelia_vowels.wav",101.46732,102.16942,"HOODI","amelia","V","I","ʊ","B","B",1,-0.87178944346427,0.819811221937448,-0.198681182377328
"49","X_IHTYDKWOUB","English","0:26.7",1,0,0,0,0,0,0,0,1,0,0,0,0,1,0,0,1,0,1,0,0,1,0,0,78,"English",1,0,0,0,0,0,1,0,"1.0","0","0",0,1,0,0,0,0,0,1,0,0,0,0,1,0,1,0,1,0,1,0,1,"English","one_play_two_responses","stimulus48_A","orderSI=46","orderAI=50","0:5.8","50;",0,1,NA,5.54150411623532,4.31714265346246,365.739271671531,345.371412276997,4.51252701003646,3.46955165020869,288.801728642333,274.094580366487,19.7233026900849,15.629286450248,1282.01467485552,1250.34291601984,10.4725377509648,8.50808189583447,722.60510481657,663.630387875089,"A","amelia_consonants_55","amelia_consonants_14","ewan_101","amelia_consonants.wav",145.1325,145.8925,"EETHEE","amelia","C","I","θ","amelia_consonants.wav",36.60264,37.21308,"EETEE","amelia","C","I","t","ewan.wav",290.0925,290.7225,"EETHEE","ewan","C","I","θ","B","A",0,-1.22436146277286,0.779056112367441,-0.249672204425105
"50","X_IHTYDKWOUB","English","0:26.7",1,0,0,0,0,0,0,0,1,0,0,0,0,1,0,0,1,0,1,0,0,1,0,0,78,"English",1,0,0,0,0,0,1,0,"1.0","0","0",0,1,0,0,0,0,0,1,0,0,0,0,1,0,1,0,1,0,1,0,1,"English","one_play_two_responses","stimulus40_A","orderSI=54","orderAI=51","0:5.4","51;",0,1,NA,NA,NA,NA,NA,NA,NA,NA,NA,NA,NA,NA,NA,NA,NA,NA,NA,NA,NA,NA,NA,NA,NA,NA,NA,NA,NA,NA,NA,NA,NA,NA,NA,NA,NA,NA,NA,NA,NA,NA,NA,NA,NA,NA,NA,"B","A",0,NA,NA,NA
"51","X_IHTYDKWOUB","English","0:26.7",1,0,0,0,0,0,0,0,1,0,0,0,0,1,0,0,1,0,1,0,0,1,0,0,78,"English",1,0,0,0,0,0,1,0,"1.0","0","0",0,1,0,0,0,0,0,1,0,0,0,0,1,0,1,0,1,0,1,0,1,"English","one_play_two_responses","stimulus143_B","orderSI=15","orderAI=52","0:4.9","52;",0,1,NA,5.68390572461508,4.55842086703049,375.137777824595,305.414198091043,4.8319721027675,3.94648174249628,304.414242474352,260.467795004755,20.368050232428,16.6591845234018,1364.65936557268,1116.16536306792,13.2496206997055,10.0808408445777,834.726104081444,645.173814052974,"B","ewan_68","ewan_97","amelia_consonants_20","ewan.wav",201.2425,201.7625,"AKAH","ewan","C","A","k","ewan.wav",279.7725,280.3225,"ATHAH","ewan","C","A","θ","amelia_consonants.wav",53.0271,53.6525,"AKAH","amelia","C","A","k","B","B",1,-1.12548485758459,0.801987416379815,-0.220662361538199
"52","X_IHTYDKWOUB","English","0:26.7",1,0,0,0,0,0,0,0,1,0,0,0,0,1,0,0,1,0,1,0,0,1,0,0,78,"English",1,0,0,0,0,0,1,0,"1.0","0","0",0,1,0,0,0,0,0,1,0,0,0,0,1,0,1,0,1,0,1,0,1,"English","one_play_two_responses","stimulus140_A","orderSI=18","orderAI=53","0:4.5","53;",0,1,NA,NA,NA,NA,NA,NA,NA,NA,NA,NA,NA,NA,NA,NA,NA,NA,NA,NA,NA,NA,NA,NA,NA,NA,NA,NA,NA,NA,NA,NA,NA,NA,NA,NA,NA,NA,NA,NA,NA,NA,NA,NA,NA,NA,NA,"B","A",0,NA,NA,NA
"53","X_IHTYDKWOUB","English","0:26.7",1,0,0,0,0,0,0,0,1,0,0,0,0,1,0,0,1,0,1,0,0,1,0,0,78,"English",1,0,0,0,0,0,1,0,"1.0","0","0",0,1,0,0,0,0,0,1,0,0,0,0,1,0,1,0,1,0,1,0,1,"English","one_play_two_responses","stimulus84_A","orderSI=42","orderAI=54","0:4.3","54;",0,1,NA,4.3788278742792,3.95044152940679,398.473336559407,327.886646940764,4.98897842831646,4.44356003437991,404.107252693633,368.815482853533,19.5311263563883,15.3384007596681,1503.8967294419,1273.08726305245,14.2248413877501,10.8312483699675,1152.21215240776,898.993614707303,"A","ewan_28","ewan_19","amelia_vowels_25","ewan.wav",81.0625,81.7525,"HUHDAH","ewan","V","A","ʌ","ewan.wav",54.4125,55.1725,"HEEDAH","ewan","V","A","i","amelia_vowels.wav",66.85124,67.6025,"HUHDAH","amelia","V","A","ʌ","B","A",0,-0.42838634487241,0.902168717937348,-0.102953727699913
"54","X_IHTYDKWOUB","English","0:26.7",1,0,0,0,0,0,0,0,1,0,0,0,0,1,0,0,1,0,1,0,0,1,0,0,78,"English",1,0,0,0,0,0,1,0,"1.0","0","0",0,1,0,0,0,0,0,1,0,0,0,0,1,0,1,0,1,0,1,0,1,"English","one_play_two_responses","stimulus96_A","orderSI=30","orderAI=55","0:4.7","55;",0,1,NA,NA,NA,NA,NA,NA,NA,NA,NA,NA,NA,NA,NA,NA,NA,NA,NA,NA,NA,NA,NA,NA,NA,NA,NA,NA,NA,NA,NA,NA,NA,NA,NA,NA,NA,NA,NA,NA,NA,NA,NA,NA,NA,NA,NA,"B","A",0,NA,NA,NA
"55","X_IHTYDKWOUB","English","0:26.7",1,0,0,0,0,0,0,0,1,0,0,0,0,1,0,0,1,0,1,0,0,1,0,0,78,"English",1,0,0,0,0,0,1,0,"1.0","0","0",0,1,0,0,0,0,0,1,0,0,0,0,1,0,1,0,1,0,1,0,1,"English","one_play_two_responses","stimulus138_B","orderSI=20","orderAI=56","0:4.4","56;",0,1,NA,NA,NA,NA,NA,NA,NA,NA,NA,NA,NA,NA,NA,NA,NA,NA,NA,NA,NA,NA,NA,NA,NA,NA,NA,NA,NA,NA,NA,NA,NA,NA,NA,NA,NA,NA,NA,NA,NA,NA,NA,NA,NA,NA,NA,"B","B",1,NA,NA,NA
"56","X_IHTYDKWOUB","English","0:26.7",1,0,0,0,0,0,0,0,1,0,0,0,0,1,0,0,1,0,1,0,0,1,0,0,78,"English",1,0,0,0,0,0,1,0,"1.0","0","0",0,1,0,0,0,0,0,1,0,0,0,0,1,0,1,0,1,0,1,0,1,"English","one_play_two_responses","stimulus85_A","orderSI=41","orderAI=57","0:5.2","57;",0,1,NA,4.64721236132953,3.69866995004697,390.365838351681,362.469655104604,4.71073651842459,3.65019895541914,390.991131029241,346.768900764819,17.6228925121557,14.4764724569268,1462.70007850892,1346.31193849419,13.4639192173224,9.67149655217452,1117.50529503776,928.463669008754,"A","ewan_19","ewan_43","amelia_vowels_17","ewan.wav",54.4125,55.1725,"HEEDAH","ewan","V","A","i","ewan.wav",126.2825,127.0125,"WHODAH","ewan","V","A","u","amelia_vowels.wav",44.25247,45.0725,"HEEDAH","amelia","V","A","i","B","A",0,-0.94854241128256,0.795890022333477,-0.228294265580768
"57","X_IHTYDKWOUB","English","0:26.7",1,0,0,0,0,0,0,0,1,0,0,0,0,1,0,0,1,0,1,0,0,1,0,0,78,"English",1,0,0,0,0,0,1,0,"1.0","0","0",0,1,0,0,0,0,0,1,0,0,0,0,1,0,1,0,1,0,1,0,1,"English","one_play_two_responses","stimulus44_A","orderSI=50","orderAI=59","0:10.6","59;",0,1,NA,NA,NA,NA,NA,NA,NA,NA,NA,NA,NA,NA,NA,NA,NA,NA,NA,NA,NA,NA,NA,NA,NA,NA,NA,NA,NA,NA,NA,NA,NA,NA,NA,NA,NA,NA,NA,NA,NA,NA,NA,NA,NA,NA,NA,"B","A",0,NA,NA,NA
"58","X_IHTYDKWOUB","English","0:26.7",1,0,0,0,0,0,0,0,1,0,0,0,0,1,0,0,1,0,1,0,0,1,0,0,78,"English",1,0,0,0,0,0,1,0,"1.0","0","0",0,1,0,0,0,0,0,1,0,0,0,0,1,0,1,0,1,0,1,0,1,"English","one_play_two_responses","stimulus35_B","orderSI=59","orderAI=60","0:10.3","60;",0,1,NA,NA,NA,NA,NA,NA,NA,NA,NA,NA,NA,NA,NA,NA,NA,NA,NA,NA,NA,NA,NA,NA,NA,NA,NA,NA,NA,NA,NA,NA,NA,NA,NA,NA,NA,NA,NA,NA,NA,NA,NA,NA,NA,NA,NA,"B","B",1,NA,NA,NA
"59","X_IHTYDKWOUB","English","0:26.7",1,0,0,0,0,0,0,0,1,0,0,0,0,1,0,0,1,0,1,0,0,1,0,0,78,"English",1,0,0,0,0,0,1,0,"1.0","0","0",0,1,0,0,0,0,0,1,0,0,0,0,1,0,1,0,1,0,1,0,1,"English","one_play_two_responses","stimulus130_B","orderSI=28","orderAI=61","0:4.1","61;",1,0,NA,4.90969222579509,4.55842086703049,333.859071354066,305.414198091043,5.52672677265288,3.94648174249628,359.237240222437,260.467795004755,18.0439165552814,16.6591845234018,1245.03024231441,1116.16536306792,13.0418624856543,10.0808408445777,886.846649024494,645.173814052974,"B","ewan_68","ewan_50","amelia_consonants_20","ewan.wav",201.2425,201.7625,"AKAH","ewan","C","A","k","ewan.wav",152.8525,153.4425,"APAH","ewan","C","A","p","amelia_consonants.wav",53.0271,53.6525,"AKAH","amelia","C","A","k","A","B",0,-0.3512713587646,0.92845348697846,-0.0742349942438825
"60","X_IHTYDKWOUB","English","0:26.7",1,0,0,0,0,0,0,0,1,0,0,0,0,1,0,0,1,0,1,0,0,1,0,0,78,"English",1,0,0,0,0,0,1,0,"1.0","0","0",0,1,0,0,0,0,0,1,0,0,0,0,1,0,1,0,1,0,1,0,1,"English","one_play_two_responses","stimulus42_B","orderSI=52","orderAI=62","0:6.2","62;",0,1,NA,NA,NA,NA,NA,NA,NA,NA,NA,NA,NA,NA,NA,NA,NA,NA,NA,NA,NA,NA,NA,NA,NA,NA,NA,NA,NA,NA,NA,NA,NA,NA,NA,NA,NA,NA,NA,NA,NA,NA,NA,NA,NA,NA,NA,"B","B",1,NA,NA,NA
"61","X_IHTYDKWOUB","English","0:26.7",1,0,0,0,0,0,0,0,1,0,0,0,0,1,0,0,1,0,1,0,0,1,0,0,78,"English",1,0,0,0,0,0,1,0,"1.0","0","0",0,1,0,0,0,0,0,1,0,0,0,0,1,0,1,0,1,0,1,0,1,"English","one_play_two_responses","stimulus27_B","orderSI=101","orderAI=64","0:6.1","64;",1,0,NA,3.96869683545233,3.76222484920206,293.683565823472,267.117964293346,4.26067006370642,3.70289034107935,306.768244586862,262.905214216634,13.801211653482,14.1573448789912,1021.28966235767,1005.17148640837,10.6471853149794,8.99329123974035,766.597342678517,638.523678021565,"B","ewan_92","ewan_83","amelia_consonants_42","ewan.wav",266.7625,267.2825,"ASHAH","ewan","C","A","ʃ","ewan.wav",244.4025,244.9725,"ASSAH","ewan","C","A","s","amelia_consonants.wav",112.2325,112.9325,"ASHAH","amelia","C","A","ʃ","A","B",0,-0.20647198625027,0.947974865601762,-0.0534272901569035
"62","X_IHTYDKWOUB","English","0:26.7",1,0,0,0,0,0,0,0,1,0,0,0,0,1,0,0,1,0,1,0,0,1,0,0,78,"English",1,0,0,0,0,0,1,0,"1.0","0","0",0,1,0,0,0,0,0,1,0,0,0,0,1,0,1,0,1,0,1,0,1,"English","one_play_two_responses","stimulus123_B","orderSI=69","orderAI=65","0:7.8","65;",0,1,NA,NA,NA,NA,NA,NA,NA,NA,NA,NA,NA,NA,NA,NA,NA,NA,NA,NA,NA,NA,NA,NA,NA,NA,NA,NA,NA,NA,NA,NA,NA,NA,NA,NA,NA,NA,NA,NA,NA,NA,NA,NA,NA,NA,NA,"B","B",1,NA,NA,NA
"63","X_IHTYDKWOUB","English","0:26.7",1,0,0,0,0,0,0,0,1,0,0,0,0,1,0,0,1,0,1,0,0,1,0,0,78,"English",1,0,0,0,0,0,1,0,"1.0","0","0",0,1,0,0,0,0,0,1,0,0,0,0,1,0,1,0,1,0,1,0,1,"English","one_play_two_responses","stimulus75_B","orderSI=85","orderAI=66","0:7.1","66;",0,1,NA,NA,NA,NA,NA,NA,NA,NA,NA,NA,NA,NA,NA,NA,NA,NA,NA,NA,NA,NA,NA,NA,NA,NA,NA,NA,NA,NA,NA,NA,NA,NA,NA,NA,NA,NA,NA,NA,NA,NA,NA,NA,NA,NA,NA,"B","B",1,NA,NA,NA
"64","X_IHTYDKWOUB","English","0:26.7",1,0,0,0,0,0,0,0,1,0,0,0,0,1,0,0,1,0,1,0,0,1,0,0,78,"English",1,0,0,0,0,0,1,0,"1.0","0","0",0,1,0,0,0,0,0,1,0,0,0,0,1,0,1,0,1,0,1,0,1,"English","one_play_two_responses","stimulus67_B","orderSI=93","orderAI=67","0:4.5","67;",0,1,NA,NA,NA,NA,NA,NA,NA,NA,NA,NA,NA,NA,NA,NA,NA,NA,NA,NA,NA,NA,NA,NA,NA,NA,NA,NA,NA,NA,NA,NA,NA,NA,NA,NA,NA,NA,NA,NA,NA,NA,NA,NA,NA,NA,NA,"B","B",1,NA,NA,NA
"65","X_IHTYDKWOUB","English","0:26.7",1,0,0,0,0,0,0,0,1,0,0,0,0,1,0,0,1,0,1,0,0,1,0,0,78,"English",1,0,0,0,0,0,1,0,"1.0","0","0",0,1,0,0,0,0,0,1,0,0,0,0,1,0,1,0,1,0,1,0,1,"English","one_play_two_responses","stimulus21_A","orderSI=107","orderAI=68","0:5.6","68;",0,1,NA,4.20332435191878,4.48806656717853,256.402785467046,287.236260299426,3.95938267035673,4.06553726026763,229.64419488069,256.128847396861,15.1552134108962,16.7378153277514,924.46801806467,1037.74455032059,9.85472528156983,9.9461131381046,581.42879161262,636.551240838694,"A","ewan_56","ewan_62","amelia_consonants_7","ewan.wav",168.7025,169.3025,"EEPEE","ewan","C","I","p","ewan.wav",185.2225,185.7725,"EETEE","ewan","C","I","t","amelia_consonants.wav",17.98056,18.54394,"EEPEE","amelia","C","I","p","B","A",0,0.28474221525975,1.06774214679145,0.0655462757992076
"66","X_IHTYDKWOUB","English","0:26.7",1,0,0,0,0,0,0,0,1,0,0,0,0,1,0,0,1,0,1,0,0,1,0,0,78,"English",1,0,0,0,0,0,1,0,"1.0","0","0",0,1,0,0,0,0,0,1,0,0,0,0,1,0,1,0,1,0,1,0,1,"English","one_play_two_responses","stimulus124_A","orderSI=68","orderAI=69","0:4.1","69;",0,1,NA,3.96510067517072,4.31714265346246,309.277852663316,345.371412276997,3.38528099522699,3.46955165020869,260.666636632478,274.094580366487,14.7990072737207,15.629286450248,1139.5235600765,1250.34291601984,9.12721021965706,8.50808189583447,702.795186913594,663.630387875089,"A","ewan_101","ewan_80","amelia_consonants_55","ewan.wav",290.0925,290.7225,"EETHEE","ewan","C","I","θ","ewan.wav",235.6825,236.2625,"EEFEE","ewan","C","I","f","amelia_consonants.wav",145.1325,145.8925,"EETHEE","amelia","C","I","θ","B","A",0,0.35204197829174,1.08878512984455,0.0850625148817577
"67","X_IHTYDKWOUB","English","0:26.7",1,0,0,0,0,0,0,0,1,0,0,0,0,1,0,0,1,0,1,0,0,1,0,0,78,"English",1,0,0,0,0,0,1,0,"1.0","0","0",0,1,0,0,0,0,0,1,0,0,0,0,1,0,1,0,1,0,1,0,1,"English","one_play_two_responses","stimulus80_A","orderSI=80","orderAI=70","0:4.7","70;",0,1,NA,5.30139107266647,4.06298053366034,440.015459031317,357.54228696211,4.64698498643258,4.77431644557525,385.699753873904,381.94531564602,19.5994373720376,15.5884827142336,1626.75330187912,1356.19799613833,14.1344961223187,11.4607654932482,1173.16317815245,939.782770446356,"A","amelia_vowels_33","amelia_vowels_17","ewan_34","amelia_vowels.wav",87.27244,88.0325,"HOODAH","amelia","V","A","ʊ","amelia_vowels.wav",44.25247,45.0725,"HEEDAH","amelia","V","A","i","ewan.wav",99.9925,100.7325,"HOODAH","ewan","V","A","ʊ","B","A",0,-1.23841053900613,0.766398946610207,-0.266052426791191
"68","X_IHTYDKWOUB","English","0:26.7",1,0,0,0,0,0,0,0,1,0,0,0,0,1,0,0,1,0,1,0,0,1,0,0,78,"English",1,0,0,0,0,0,1,0,"1.0","0","0",0,1,0,0,0,0,0,1,0,0,0,0,1,0,1,0,1,0,1,0,1,"English","one_play_two_responses","stimulus20_A","orderSI=108","orderAI=71","0:5.3","71;",1,0,NA,4.51003111449674,3.98559776778026,333.742302472759,294.934234815739,4.82036502357444,3.96703868232964,347.066281697359,285.626785127734,17.5373319377561,15.1429041082061,1280.22523145619,1120.57490400725,12.5478630494574,9.92197937938285,903.446139560931,714.382515315565,"A","ewan_97","ewan_50","amelia_consonants_49","ewan.wav",279.7725,280.3225,"ATHAH","ewan","C","A","θ","ewan.wav",152.8525,153.4425,"APAH","ewan","C","A","p","amelia_consonants.wav",129.9825,130.6925,"ATHAH","amelia","C","A","θ","A","A",1,-0.52443334671648,0.883718463708426,-0.123616747037853
"69","X_IHTYDKWOUB","English","0:26.7",1,0,0,0,0,0,0,0,1,0,0,0,0,1,0,0,1,0,1,0,0,1,0,0,78,"English",1,0,0,0,0,0,1,0,"1.0","0","0",0,1,0,0,0,0,0,1,0,0,0,0,1,0,1,0,1,0,1,0,1,"English","one_play_two_responses","stimulus69_A","orderSI=91","orderAI=72","0:4.6","72;",0,1,NA,NA,NA,NA,NA,NA,NA,NA,NA,NA,NA,NA,NA,NA,NA,NA,NA,NA,NA,NA,NA,NA,NA,NA,NA,NA,NA,NA,NA,NA,NA,NA,NA,NA,NA,NA,NA,NA,NA,NA,NA,NA,NA,NA,NA,"B","A",0,NA,NA,NA
"70","X_IHTYDKWOUB","English","0:26.7",1,0,0,0,0,0,0,0,1,0,0,0,0,1,0,0,1,0,1,0,0,1,0,0,78,"English",1,0,0,0,0,0,1,0,"1.0","0","0",0,1,0,0,0,0,0,1,0,0,0,0,1,0,1,0,1,0,1,0,1,"English","one_play_two_responses","stimulus17_A","orderSI=111","orderAI=73","0:6.2","73;",0,1,NA,4.51003111449674,4.01669947148956,333.742302472759,265.102165118311,4.82036502357444,4.8822503414671,347.066281697359,307.581771512427,17.5373319377561,14.8083061718698,1280.22523145619,977.348207343409,12.5478630494574,10.7972105135754,903.446139560931,712.615893895977,"A","amelia_consonants_3","amelia_consonants_49","ewan_50","amelia_consonants.wav",7.31359,7.93251,"APAH","amelia","C","A","p","amelia_consonants.wav",129.9825,130.6925,"ATHAH","amelia","C","A","θ","ewan.wav",152.8525,153.4425,"APAH","ewan","C","A","p","B","A",0,-0.493331643007179,0.890614581034386,-0.115843514081256
"71","X_IHTYDKWOUB","English","0:26.7",1,0,0,0,0,0,0,0,1,0,0,0,0,1,0,0,1,0,1,0,0,1,0,0,78,"English",1,0,0,0,0,0,1,0,"1.0","0","0",0,1,0,0,0,0,0,1,0,0,0,0,1,0,1,0,1,0,1,0,1,"English","one_play_two_responses","stimulus114_B","orderSI=78","orderAI=74","0:4.8","74;",0,1,NA,5.49722249408197,4.14474670545948,412.291687056148,319.14549632038,3.99761783596318,3.22669150398718,295.823719861275,242.001862799038,19.0738949209011,14.5940028095793,1468.68990890939,1123.73821633761,10.2847336518274,7.48461333335758,791.924491190712,568.830613335176,"B","amelia_consonants_46","amelia_consonants_31","ewan_96","amelia_consonants.wav",121.8625,122.6025,"EESHEE","amelia","C","I","ʃ","amelia_consonants.wav",82.6725,83.39679,"EEFEE","amelia","C","I","f","ewan.wav",276.7625,277.3325,"EESHEE","ewan","C","I","ʃ","B","B",1,-1.35247578862249,0.753971066283292,-0.282401285340054
"72","X_IHTYDKWOUB","English","0:26.7",1,0,0,0,0,0,0,0,1,0,0,0,0,1,0,0,1,0,1,0,0,1,0,0,78,"English",1,0,0,0,0,0,1,0,"1.0","0","0",0,1,0,0,0,0,0,1,0,0,0,0,1,0,1,0,1,0,1,0,1,"English","one_play_two_responses","stimulus116_A","orderSI=76","orderAI=75","0:4.8","75;",0,1,NA,4.67050184479119,3.90007214571073,354.95814020413,292.505410928305,3.75869678164768,3.47514441261767,285.660955405224,257.160686533707,16.2196828971872,14.1498911431995,1248.91558308341,1061.24183573996,9.96039005770567,8.48489623049818,766.950034443336,636.367217287363,"A","ewan_80","ewan_87","amelia_consonants_31","ewan.wav",235.6825,236.2625,"EEFEE","ewan","C","I","f","ewan.wav",254.4625,255.0425,"EESSEE","ewan","C","I","s","amelia_consonants.wav",82.6725,83.39679,"EEFEE","amelia","C","I","f","B","A",0,-0.77042969908046,0.835043486827933,-0.180271475453946
"73","X_IHTYDKWOUB","English","0:26.7",1,0,0,0,0,0,0,0,1,0,0,0,0,1,0,0,1,0,1,0,0,1,0,0,78,"English",1,0,0,0,0,0,1,0,"1.0","0","0",0,1,0,0,0,0,0,1,0,0,0,0,1,0,1,0,1,0,1,0,1,"English","one_play_two_responses","stimulus30_B","orderSI=98","orderAI=76","0:6.3","76;",0,1,NA,NA,NA,NA,NA,NA,NA,NA,NA,NA,NA,NA,NA,NA,NA,NA,NA,NA,NA,NA,NA,NA,NA,NA,NA,NA,NA,NA,NA,NA,NA,NA,NA,NA,NA,NA,NA,NA,NA,NA,NA,NA,NA,NA,NA,"B","B",1,NA,NA,NA
"74","X_IHTYDKWOUB","English","0:26.7",1,0,0,0,0,0,0,0,1,0,0,0,0,1,0,0,1,0,1,0,0,1,0,0,78,"English",1,0,0,0,0,0,1,0,"1.0","0","0",0,1,0,0,0,0,0,1,0,0,0,0,1,0,1,0,1,0,1,0,1,"English","one_play_two_responses","stimulus32_A","orderSI=96","orderAI=77","0:3.0","77;",0,1,NA,NA,NA,NA,NA,NA,NA,NA,NA,NA,NA,NA,NA,NA,NA,NA,NA,NA,NA,NA,NA,NA,NA,NA,NA,NA,NA,NA,NA,NA,NA,NA,NA,NA,NA,NA,NA,NA,NA,NA,NA,NA,NA,NA,NA,"B","A",0,NA,NA,NA
"75","X_IHTYDKWOUB","English","0:26.7",1,0,0,0,0,0,0,0,1,0,0,0,0,1,0,0,1,0,1,0,0,1,0,0,78,"English",1,0,0,0,0,0,1,0,"1.0","0","0",0,1,0,0,0,0,0,1,0,0,0,0,1,0,1,0,1,0,1,0,1,"English","one_play_two_responses","stimulus24_A","orderSI=104","orderAI=78","0:7.5","78;",0,1,NA,4.22072288459533,3.9664110973132,337.657830767626,325.245709979682,4.08333256610454,4.24074807313773,322.583272722259,322.296853558468,15.1675685200922,14.754922362714,1213.40548160737,1224.65855610526,10.3980403513089,10.6179828768912,831.843228104708,796.348715766843,"A","amelia_vowels_39","amelia_vowels_5","ewan_37","amelia_vowels.wav",101.46732,102.16942,"HOODI","amelia","V","I","ʊ","amelia_vowels.wav",12.5659,13.30968,"HADI","amelia","V","I","ɑ","ewan.wav",109.0925,109.8025,"HOODI","ewan","V","I","ʊ","B","A",0,-0.25431178728213,0.939746864640105,-0.0621447329199998
"76","X_IHTYDKWOUB","English","0:26.7",1,0,0,0,0,0,0,0,1,0,0,0,0,1,0,0,1,0,1,0,0,1,0,0,78,"English",1,0,0,0,0,0,1,0,"1.0","0","0",0,1,0,0,0,0,0,1,0,0,0,0,1,0,1,0,1,0,1,0,1,"English","one_play_two_responses","stimulus76_A","orderSI=84","orderAI=79","0:4.2","79;",1,0,NA,4.75843962536108,3.87537830462639,371.158290778164,372.036317244134,4.55853080481398,3.87968162779801,351.006871970676,345.291664874023,17.3644266496939,14.1091743330373,1354.42527867612,1340.37156163855,12.6227448071564,8.94712395989206,971.951350151046,858.923900149637,"A","ewan_21","ewan_37","amelia_vowels_22","ewan.wav",60.9271,61.7525,"HEEDI","ewan","V","I","i","ewan.wav",109.0925,109.8025,"HOODI","ewan","V","I","ʊ","amelia_vowels.wav",57.64913,58.41293,"HEEDI","amelia","V","I","i","A","A",1,-0.88306132073469,0.814422081552063,-0.205276519663396
"77","X_IHTYDKWOUB","English","0:26.7",1,0,0,0,0,0,0,0,1,0,0,0,0,1,0,0,1,0,1,0,0,1,0,0,78,"English",1,0,0,0,0,0,1,0,"1.0","0","0",0,1,0,0,0,0,0,1,0,0,0,0,1,0,1,0,1,0,1,0,1,"English","one_play_two_responses","stimulus78_B","orderSI=82","orderAI=80","0:6.1","80;",1,0,NA,4.39756445455993,4.06298053366034,404.575929819514,357.54228696211,5.09901203621907,4.77431644557525,423.217999006183,381.94531564602,16.7227383392733,15.5884827142336,1505.0464505346,1356.19799613833,13.7481617252906,11.4607654932482,1168.5937466497,939.782770446356,"B","ewan_34","ewan_19","amelia_vowels_33","ewan.wav",99.9925,100.7325,"HOODAH","ewan","V","A","ʊ","ewan.wav",54.4125,55.1725,"HEEDAH","ewan","V","A","i","amelia_vowels.wav",87.27244,88.0325,"HOODAH","amelia","V","A","ʊ","A","B",0,-0.33458392089959,0.923916084833583,-0.0791340287442642
"78","X_IHTYDKWOUB","English","0:26.7",1,0,0,0,0,0,0,0,1,0,0,0,0,1,0,0,1,0,1,0,0,1,0,0,78,"English",1,0,0,0,0,0,1,0,"1.0","0","0",0,1,0,0,0,0,0,1,0,0,0,0,1,0,1,0,1,0,1,0,1,"English","one_play_two_responses","stimulus25_A","orderSI=103","orderAI=81","0:6.1","81;",0,1,NA,4.18829117710297,4.42071027583906,268.05063533459,282.9254576537,4.3593416128565,4.72243690618866,274.638521609959,302.235961996074,14.9097660927997,16.2997904124523,954.22502993918,1059.4863768094,10.561049008368,11.3545630419892,665.346087527184,726.692034687311,"A","amelia_consonants_9","amelia_consonants_3","ewan_59","amelia_consonants.wav",23.47667,24.1025,"ATAH","amelia","C","A","t","amelia_consonants.wav",7.31359,7.93251,"APAH","amelia","C","A","p","ewan.wav",177.0325,177.5625,"ATAH","ewan","C","A","t","B","A",0,0.23241909873609,1.05549258370734,0.0540075619502768
"79","X_IHTYDKWOUB","English","0:26.7",1,0,0,0,0,0,0,0,1,0,0,0,0,1,0,0,1,0,1,0,0,1,0,0,78,"English",1,0,0,0,0,0,1,0,"1.0","0","0",0,1,0,0,0,0,0,1,0,0,0,0,1,0,1,0,1,0,1,0,1,"English","one_play_two_responses","stimulus23_B","orderSI=105","orderAI=82","0:7.6","82;",0,1,NA,4.65425375791336,4.42071027583906,307.180748022282,282.9254576537,5.19875598961083,4.72243690618866,327.521627345482,302.235961996074,17.3701092667877,16.2997904124523,1146.42721160799,1059.4863768094,12.5838198334385,11.3545630419892,843.115928840382,726.692034687311,"B","ewan_59","ewan_50","amelia_consonants_9","ewan.wav",177.0325,177.5625,"ATAH","ewan","C","A","t","ewan.wav",152.8525,153.4425,"APAH","ewan","C","A","p","amelia_consonants.wav",23.47667,24.1025,"ATAH","amelia","C","A","t","B","B",1,-0.233543482074301,0.949821497876599,-0.0514812090143988
"80","X_IHTYDKWOUB","English","0:26.7",1,0,0,0,0,0,0,0,1,0,0,0,0,1,0,0,1,0,1,0,0,1,0,0,78,"English",1,0,0,0,0,0,1,0,"1.0","0","0",0,1,0,0,0,0,0,1,0,0,0,0,1,0,1,0,1,0,1,0,1,"English","one_play_two_responses","stimulus23_B","orderSI=105","orderAI=82","0:9.4","82;",0,1,NA,4.65425375791336,4.42071027583906,307.180748022282,282.9254576537,5.19875598961083,4.72243690618866,327.521627345482,302.235961996074,17.3701092667877,16.2997904124523,1146.42721160799,1059.4863768094,12.5838198334385,11.3545630419892,843.115928840382,726.692034687311,"B","ewan_59","ewan_50","amelia_consonants_9","ewan.wav",177.0325,177.5625,"ATAH","ewan","C","A","t","ewan.wav",152.8525,153.4425,"APAH","ewan","C","A","p","amelia_consonants.wav",23.47667,24.1025,"ATAH","amelia","C","A","t","B","B",1,-0.233543482074301,0.949821497876599,-0.0514812090143988
"81","X_IHTYDKWOUB","English","0:26.7",1,0,0,0,0,0,0,0,1,0,0,0,0,1,0,0,1,0,1,0,0,1,0,0,78,"English",1,0,0,0,0,0,1,0,"1.0","0","0",0,1,0,0,0,0,0,1,0,0,0,0,1,0,1,0,1,0,1,0,1,"English","one_play_two_responses","stimulus120_A","orderSI=72","orderAI=83","0:8.9","83;",1,0,NA,3.53575376643563,3.56049319531157,261.645778716237,245.674030476499,4.03779235193944,4.24981113527294,290.72104933964,284.737346063287,13.0723483247762,13.3091102770451,967.353776033437,918.32860911611,9.79043182255026,9.91007162511971,714.701523046169,673.88487050814,"A","amelia_consonants_27","amelia_consonants_49","ewan_76","amelia_consonants.wav",72.1025,72.7625,"AFAH","amelia","C","A","f","amelia_consonants.wav",129.9825,130.6925,"ATHAH","amelia","C","A","θ","ewan.wav",224.3325,224.8825,"AFAH","ewan","C","A","f","A","A",1,0.0247394288759399,1.00699693205754,0.00697256711563692
"82","X_IHTYDKWOUB","English","0:26.7",1,0,0,0,0,0,0,0,1,0,0,0,0,1,0,0,1,0,1,0,0,1,0,0,78,"English",1,0,0,0,0,0,1,0,"1.0","0","0",0,1,0,0,0,0,0,1,0,0,0,0,1,0,1,0,1,0,1,0,1,"English","one_play_two_responses","stimulus66_B","orderSI=94","orderAI=84","0:7.6","84;",1,0,NA,NA,NA,NA,NA,NA,NA,NA,NA,NA,NA,NA,NA,NA,NA,NA,NA,NA,NA,NA,NA,NA,NA,NA,NA,NA,NA,NA,NA,NA,NA,NA,NA,NA,NA,NA,NA,NA,NA,NA,NA,NA,NA,NA,NA,"A","B",0,NA,NA,NA
"83","X_IHTYDKWOUB","English","0:26.7",1,0,0,0,0,0,0,0,1,0,0,0,0,1,0,0,1,0,1,0,0,1,0,0,78,"English",1,0,0,0,0,0,1,0,"1.0","0","0",0,1,0,0,0,0,0,1,0,0,0,0,1,0,1,0,1,0,1,0,1,"English","one_play_two_responses","stimulus77_A","orderSI=83","orderAI=85","0:41.3","85;",0,1,NA,NA,NA,NA,NA,NA,NA,NA,NA,NA,NA,NA,NA,NA,NA,NA,NA,NA,NA,NA,NA,NA,NA,NA,NA,NA,NA,NA,NA,NA,NA,NA,NA,NA,NA,NA,NA,NA,NA,NA,NA,NA,NA,NA,NA,"B","A",0,NA,NA,NA
"84","X_IHTYDKWOUB","English","0:26.7",1,0,0,0,0,0,0,0,1,0,0,0,0,1,0,0,1,0,1,0,0,1,0,0,78,"English",1,0,0,0,0,0,1,0,"1.0","0","0",0,1,0,0,0,0,0,1,0,0,0,0,1,0,1,0,1,0,1,0,1,"English","one_play_two_responses","stimulus128_A","orderSI=64","orderAI=86","0:47.3","86;",1,0,NA,4.931355614227,4.42071027583906,325.469470538982,282.9254576537,4.79461879513725,4.72243690618866,302.060984093647,302.235961996074,17.5262898666443,16.2997904124523,1156.73513119852,1059.4863768094,12.4033708640591,11.3545630419892,781.412364435725,726.692034687311,"A","ewan_59","ewan_76","amelia_consonants_9","ewan.wav",177.0325,177.5625,"ATAH","ewan","C","A","t","ewan.wav",224.3325,224.8825,"AFAH","ewan","C","A","f","amelia_consonants.wav",23.47667,24.1025,"ATAH","amelia","C","A","t","A","A",1,-0.51064533838794,0.8964492974478,-0.109313543645843
"85","X_IHTYDKWOUB","English","0:26.7",1,0,0,0,0,0,0,0,1,0,0,0,0,1,0,0,1,0,1,0,0,1,0,0,78,"English",1,0,0,0,0,0,1,0,"1.0","0","0",0,1,0,0,0,0,0,1,0,0,0,0,1,0,1,0,1,0,1,0,1,"English","one_play_two_responses","stimulus19_B","orderSI=109","orderAI=87","0:6.6","87;",0,1,NA,5.14837341926656,4.31714265346246,396.424753283525,345.371412276997,4.19292318659999,3.46955165020869,322.855085368199,274.094580366487,18.6212038897531,15.629286450248,1433.83269951099,1250.34291601984,11.2351498934512,8.50808189583447,865.106541795744,663.630387875089,"B","ewan_101","ewan_56","amelia_consonants_55","ewan.wav",290.0925,290.7225,"EETHEE","ewan","C","I","θ","ewan.wav",168.7025,169.3025,"EEPEE","ewan","C","I","p","amelia_consonants.wav",145.1325,145.8925,"EETHEE","amelia","C","I","θ","B","B",1,-0.8312307658041,0.838544973701127,-0.176087063258447
"86","X_IHTYDKWOUB","English","0:26.7",1,0,0,0,0,0,0,0,1,0,0,0,0,1,0,0,1,0,1,0,0,1,0,0,78,"English",1,0,0,0,0,0,1,0,"1.0","0","0",0,1,0,0,0,0,0,1,0,0,0,0,1,0,1,0,1,0,1,0,1,"English","one_play_two_responses","stimulus74_B","orderSI=86","orderAI=88","0:5.6","88;",1,0,NA,5.14119709021195,4.18237789471523,447.28414684844,368.04925473494,4.59119113265533,4.37135386695183,367.295290612427,380.307786424809,18.9503576983698,15.1472904422494,1648.68111975817,1332.96155891795,10.9442040364744,9.75093569430409,919.313139063853,848.331405404456,"B","ewan_46","ewan_14","amelia_vowels_48","ewan.wav",134.9925,135.7425,"WHODI","ewan","V","I","u","ewan.wav",40.24068,40.9225,"HAEDI","ewan","V","I","æ","amelia_vowels.wav",123.87499,124.5925,"WHODI","amelia","V","I","u","A","B",0,-0.95881919549672,0.813502735127162,-0.206405990156401
"87","X_IHTYDKWOUB","English","0:26.7",1,0,0,0,0,0,0,0,1,0,0,0,0,1,0,0,1,0,1,0,0,1,0,0,78,"English",1,0,0,0,0,0,1,0,"1.0","0","0",0,1,0,0,0,0,0,1,0,0,0,0,1,0,1,0,1,0,1,0,1,"English","one_play_two_responses","stimulus119_B","orderSI=73","orderAI=89","0:43.5","89;",1,0,NA,NA,NA,NA,NA,NA,NA,NA,NA,NA,NA,NA,NA,NA,NA,NA,NA,NA,NA,NA,NA,NA,NA,NA,NA,NA,NA,NA,NA,NA,NA,NA,NA,NA,NA,NA,NA,NA,NA,NA,NA,NA,NA,NA,NA,"A","B",0,NA,NA,NA
"88","X_IHTYDKWOUB","English","0:26.7",1,0,0,0,0,0,0,0,1,0,0,0,0,1,0,0,1,0,1,0,0,1,0,0,78,"English",1,0,0,0,0,0,1,0,"1.0","0","0",0,1,0,0,0,0,0,1,0,0,0,0,1,0,1,0,1,0,1,0,1,"English","one_play_two_responses","stimulus127_B","orderSI=65","orderAI=90","0:5.2","90;",0,1,NA,4.46101769870321,4.42071027583906,303.349203511818,282.9254576537,4.65108358934467,4.72243690618866,311.622600486093,302.235961996074,16.730115726076,16.2997904124523,1137.64786937317,1059.4863768094,10.9724411383059,11.3545630419892,757.098438543109,726.692034687311,"B","amelia_consonants_9","amelia_consonants_27","ewan_59","amelia_consonants.wav",23.47667,24.1025,"ATAH","amelia","C","A","t","amelia_consonants.wav",72.1025,72.7625,"AFAH","amelia","C","A","f","ewan.wav",177.0325,177.5625,"ATAH","ewan","C","A","t","B","B",1,-0.0403074228641502,0.990964522988585,-0.00907654449720953
"89","X_IHTYDKWOUB","English","0:26.7",1,0,0,0,0,0,0,0,1,0,0,0,0,1,0,0,1,0,1,0,0,1,0,0,78,"English",1,0,0,0,0,0,1,0,"1.0","0","0",0,1,0,0,0,0,0,1,0,0,0,0,1,0,1,0,1,0,1,0,1,"English","one_play_two_responses","stimulus68_A","orderSI=92","orderAI=91","0:4.7","91;",1,0,NA,NA,NA,NA,NA,NA,NA,NA,NA,NA,NA,NA,NA,NA,NA,NA,NA,NA,NA,NA,NA,NA,NA,NA,NA,NA,NA,NA,NA,NA,NA,NA,NA,NA,NA,NA,NA,NA,NA,NA,NA,NA,NA,NA,NA,"A","A",1,NA,NA,NA
"90","X_IHTYDKWOUB","English","0:26.7",1,0,0,0,0,0,0,0,1,0,0,0,0,1,0,0,1,0,1,0,0,1,0,0,78,"English",1,0,0,0,0,0,1,0,"1.0","0","0",0,1,0,0,0,0,0,1,0,0,0,0,1,0,1,0,1,0,1,0,1,"English","one_play_two_responses","stimulus31_B","orderSI=97","orderAI=92","0:5.1","92;",0,1,NA,4.19277961696579,4.14474670545948,322.844030506366,319.14549632038,3.94824920549333,3.22669150398718,296.118690412,242.001862799038,14.050918299719,14.5940028095793,1081.92070907836,1123.73821633761,9.9311722820639,7.48461333335758,754.769093436857,568.830613335176,"B","ewan_96","ewan_101","amelia_consonants_46","ewan.wav",276.7625,277.3325,"EESHEE","ewan","C","I","ʃ","ewan.wav",290.0925,290.7225,"EETHEE","ewan","C","I","θ","amelia_consonants.wav",121.8625,122.6025,"EESHEE","amelia","C","I","ʃ","B","B",1,-0.0480329115063105,0.988543897868624,-0.0115222287903502
"91","X_IHTYDKWOUB","English","0:26.7",1,0,0,0,0,0,0,0,1,0,0,0,0,1,0,0,1,0,1,0,0,1,0,0,78,"English",1,0,0,0,0,0,1,0,"1.0","0","0",0,1,0,0,0,0,0,1,0,0,0,0,1,0,1,0,1,0,1,0,1,"English","one_play_two_responses","stimulus126_B","orderSI=66","orderAI=93","0:5.9","93;",1,0,NA,5.27032972778083,3.90007214571073,332.030772850192,292.505410928305,4.13806171230808,3.47514441261767,256.559826163101,257.160686533707,18.8976187862848,14.1498911431995,1171.65236474966,1061.24183573996,10.9512817635178,8.48489623049818,678.979469338104,636.367217287363,"B","amelia_consonants_31","amelia_consonants_14","ewan_80","amelia_consonants.wav",82.6725,83.39679,"EEFEE","amelia","C","I","f","amelia_consonants.wav",36.60264,37.21308,"EETEE","amelia","C","I","t","ewan.wav",235.6825,236.2625,"EEFEE","ewan","C","I","f","A","B",0,-1.3702575820701,0.740005340681584,-0.30109787567269
"92","X_IHTYDKWOUB","English","0:26.7",1,0,0,0,0,0,0,0,1,0,0,0,0,1,0,0,1,0,1,0,0,1,0,0,78,"English",1,0,0,0,0,0,1,0,"1.0","0","0",0,1,0,0,0,0,0,1,0,0,0,0,1,0,1,0,1,0,1,0,1,"English","one_play_two_responses","stimulus28_A","orderSI=100","orderAI=94","0:4.5","94;",0,1,NA,NA,NA,NA,NA,NA,NA,NA,NA,NA,NA,NA,NA,NA,NA,NA,NA,NA,NA,NA,NA,NA,NA,NA,NA,NA,NA,NA,NA,NA,NA,NA,NA,NA,NA,NA,NA,NA,NA,NA,NA,NA,NA,NA,NA,"B","A",0,NA,NA,NA
"93","X_IHTYDKWOUB","English","0:26.7",1,0,0,0,0,0,0,0,1,0,0,0,0,1,0,0,1,0,1,0,0,1,0,0,78,"English",1,0,0,0,0,0,1,0,"1.0","0","0",0,1,0,0,0,0,0,1,0,0,0,0,1,0,1,0,1,0,1,0,1,"English","one_play_two_responses","stimulus113_A","orderSI=79","orderAI=96","0:5.0","96;",0,1,NA,NA,NA,NA,NA,NA,NA,NA,NA,NA,NA,NA,NA,NA,NA,NA,NA,NA,NA,NA,NA,NA,NA,NA,NA,NA,NA,NA,NA,NA,NA,NA,NA,NA,NA,NA,NA,NA,NA,NA,NA,NA,NA,NA,NA,"B","A",0,NA,NA,NA
"94","X_IHTYDKWOUB","English","0:26.7",1,0,0,0,0,0,0,0,1,0,0,0,0,1,0,0,1,0,1,0,0,1,0,0,78,"English",1,0,0,0,0,0,1,0,"1.0","0","0",0,1,0,0,0,0,0,1,0,0,0,0,1,0,1,0,1,0,1,0,1,"English","one_play_two_responses","stimulus121_A","orderSI=71","orderAI=97","0:3.6","97;",1,0,NA,NA,NA,NA,NA,NA,NA,NA,NA,NA,NA,NA,NA,NA,NA,NA,NA,NA,NA,NA,NA,NA,NA,NA,NA,NA,NA,NA,NA,NA,NA,NA,NA,NA,NA,NA,NA,NA,NA,NA,NA,NA,NA,NA,NA,"A","A",1,NA,NA,NA
"95","X_IHTYDKWOUB","English","0:26.7",1,0,0,0,0,0,0,0,1,0,0,0,0,1,0,0,1,0,1,0,0,1,0,0,78,"English",1,0,0,0,0,0,1,0,"1.0","0","0",0,1,0,0,0,0,0,1,0,0,0,0,1,0,1,0,1,0,1,0,1,"English","one_play_two_responses","stimulus117_A","orderSI=75","orderAI=98","0:4.5","98;",0,1,NA,NA,NA,NA,NA,NA,NA,NA,NA,NA,NA,NA,NA,NA,NA,NA,NA,NA,NA,NA,NA,NA,NA,NA,NA,NA,NA,NA,NA,NA,NA,NA,NA,NA,NA,NA,NA,NA,NA,NA,NA,NA,NA,NA,NA,"B","A",0,NA,NA,NA
"96","X_IHTYDKWOUB","English","0:26.7",1,0,0,0,0,0,0,0,1,0,0,0,0,1,0,0,1,0,1,0,0,1,0,0,78,"English",1,0,0,0,0,0,1,0,"1.0","0","0",0,1,0,0,0,0,0,1,0,0,0,0,1,0,1,0,1,0,1,0,1,"English","one_play_two_responses","stimulus29_A","orderSI=99","orderAI=99","0:5.4","99;",1,0,NA,3.96869683545233,4.58066385646578,293.683565823472,366.453108517263,4.26067006370642,4.50512958002086,306.768244586862,346.894977661606,13.801211653482,16.8691239178949,1021.28966235767,1349.52991343159,10.6471853149794,11.0236757260067,766.597342678517,848.823030902515,"A","amelia_consonants_34","amelia_consonants_42","ewan_83","amelia_consonants.wav",91.35499,92.1125,"ASSAH","amelia","C","A","s","amelia_consonants.wav",112.2325,112.9325,"ASHAH","amelia","C","A","ʃ","ewan.wav",244.4025,244.9725,"ASSAH","ewan","C","A","s","A","A",1,0.61196702101345,1.15419848035424,0.143406146671305
"97","X_IHTYDKWOUB","English","0:26.7",1,0,0,0,0,0,0,0,1,0,0,0,0,1,0,0,1,0,1,0,0,1,0,0,78,"English",1,0,0,0,0,0,1,0,"1.0","0","0",0,1,0,0,0,0,0,1,0,0,0,0,1,0,1,0,1,0,1,0,1,"English","one_play_two_responses","stimulus125_A","orderSI=67","orderAI=100","0:4.3","100;",1,0,NA,4.45397207475953,3.90007214571073,334.047905606965,292.505410928305,3.75413161617826,3.47514441261767,281.55987121337,257.160686533707,15.7626171826379,14.1498911431995,1197.95890588048,1061.24183573996,9.52545088940519,8.48489623049818,714.408816705389,636.367217287363,"A","ewan_80","ewan_62","amelia_consonants_31","ewan.wav",235.6825,236.2625,"EEFEE","ewan","C","I","f","ewan.wav",185.2225,185.7725,"EETEE","ewan","C","I","t","amelia_consonants.wav",82.6725,83.39679,"EEFEE","amelia","C","I","f","A","A",1,-0.5538999290488,0.875639110494714,-0.132801247251584
"98","X_IHTYDKWOUB","English","0:26.7",1,0,0,0,0,0,0,0,1,0,0,0,0,1,0,0,1,0,1,0,0,1,0,0,78,"English",1,0,0,0,0,0,1,0,"1.0","0","0",0,1,0,0,0,0,0,1,0,0,0,0,1,0,1,0,1,0,1,0,1,"English","one_play_two_responses","stimulus115_B","orderSI=77","orderAI=101","0:4.2","101;",0,1,NA,NA,NA,NA,NA,NA,NA,NA,NA,NA,NA,NA,NA,NA,NA,NA,NA,NA,NA,NA,NA,NA,NA,NA,NA,NA,NA,NA,NA,NA,NA,NA,NA,NA,NA,NA,NA,NA,NA,NA,NA,NA,NA,NA,NA,"B","B",1,NA,NA,NA
"99","X_IHTYDKWOUB","English","0:26.7",1,0,0,0,0,0,0,0,1,0,0,0,0,1,0,0,1,0,1,0,0,1,0,0,78,"English",1,0,0,0,0,0,1,0,"1.0","0","0",0,1,0,0,0,0,0,1,0,0,0,0,1,0,1,0,1,0,1,0,1,"English","one_play_two_responses","stimulus26_B","orderSI=102","orderAI=102","0:4.2","102;",1,0,NA,NA,NA,NA,NA,NA,NA,NA,NA,NA,NA,NA,NA,NA,NA,NA,NA,NA,NA,NA,NA,NA,NA,NA,NA,NA,NA,NA,NA,NA,NA,NA,NA,NA,NA,NA,NA,NA,NA,NA,NA,NA,NA,NA,NA,"A","B",0,NA,NA,NA
"100","X_IHTYDKWOUB","English","0:26.7",1,0,0,0,0,0,0,0,1,0,0,0,0,1,0,0,1,0,1,0,0,1,0,0,78,"English",1,0,0,0,0,0,1,0,"1.0","0","0",0,1,0,0,0,0,0,1,0,0,0,0,1,0,1,0,1,0,1,0,1,"English","one_play_two_responses","stimulus79_B","orderSI=81","orderAI=103","0:4.8","103;",0,1,NA,NA,NA,NA,NA,NA,NA,NA,NA,NA,NA,NA,NA,NA,NA,NA,NA,NA,NA,NA,NA,NA,NA,NA,NA,NA,NA,NA,NA,NA,NA,NA,NA,NA,NA,NA,NA,NA,NA,NA,NA,NA,NA,NA,NA,"B","B",1,NA,NA,NA
"101","X_IHTYDKWOUB","English","0:26.7",1,0,0,0,0,0,0,0,1,0,0,0,0,1,0,0,1,0,1,0,0,1,0,0,78,"English",1,0,0,0,0,0,1,0,"1.0","0","0",0,1,0,0,0,0,0,1,0,0,0,0,1,0,1,0,1,0,1,0,1,"English","one_play_two_responses","stimulus71_B","orderSI=89","orderAI=104","0:4.5","104;",1,0,NA,NA,NA,NA,NA,NA,NA,NA,NA,NA,NA,NA,NA,NA,NA,NA,NA,NA,NA,NA,NA,NA,NA,NA,NA,NA,NA,NA,NA,NA,NA,NA,NA,NA,NA,NA,NA,NA,NA,NA,NA,NA,NA,NA,NA,"A","B",0,NA,NA,NA
"102","X_IHTYDKWOUB","English","0:26.7",1,0,0,0,0,0,0,0,1,0,0,0,0,1,0,0,1,0,1,0,0,1,0,0,78,"English",1,0,0,0,0,0,1,0,"1.0","0","0",0,1,0,0,0,0,0,1,0,0,0,0,1,0,1,0,1,0,1,0,1,"English","one_play_two_responses","stimulus73_A","orderSI=87","orderAI=105","0:5.0","105;",0,1,NA,NA,NA,NA,NA,NA,NA,NA,NA,NA,NA,NA,NA,NA,NA,NA,NA,NA,NA,NA,NA,NA,NA,NA,NA,NA,NA,NA,NA,NA,NA,NA,NA,NA,NA,NA,NA,NA,NA,NA,NA,NA,NA,NA,NA,"B","A",0,NA,NA,NA
"103","X_IHTYDKWOUB","English","0:26.7",1,0,0,0,0,0,0,0,1,0,0,0,0,1,0,0,1,0,1,0,0,1,0,0,78,"English",1,0,0,0,0,0,1,0,"1.0","0","0",0,1,0,0,0,0,0,1,0,0,0,0,1,0,1,0,1,0,1,0,1,"English","one_play_two_responses","stimulus122_B","orderSI=70","orderAI=106","0:3.7","106;",1,0,NA,4.68515242019291,4.31714265346246,346.701279094276,345.371412276997,4.04668270699747,3.46955165020869,299.454520317813,274.094580366487,15.9350543520168,15.629286450248,1226.99918510529,1250.34291601984,9.28099188400441,8.50808189583447,714.636375068339,663.630387875089,"B","amelia_consonants_55","amelia_consonants_31","ewan_101","amelia_consonants.wav",145.1325,145.8925,"EETHEE","amelia","C","I","θ","amelia_consonants.wav",82.6725,83.39679,"EEFEE","amelia","C","I","f","ewan.wav",290.0925,290.7225,"EETHEE","ewan","C","I","θ","A","B",0,-0.36800976673045,0.92145191154415,-0.0818046882104476
"104","X_IHTYDKWOUB","English","0:26.7",1,0,0,0,0,0,0,0,1,0,0,0,0,1,0,0,1,0,1,0,0,1,0,0,78,"English",1,0,0,0,0,0,1,0,"1.0","0","0",0,1,0,0,0,0,0,1,0,0,0,0,1,0,1,0,1,0,1,0,1,"English","one_play_two_responses","stimulus118_B","orderSI=74","orderAI=107","0:5.1","107;",1,0,NA,4.67050184479119,4.12817844946046,354.95814020413,288.972491462232,3.75869678164768,3.6727697583545,285.660955405224,253.42111332646,16.2196828971872,15.1485003932378,1248.91558308341,1060.39502752664,9.96039005770567,8.61452101238219,766.950034443336,603.016470866754,"B","amelia_consonants_38","amelia_consonants_31","ewan_87","amelia_consonants.wav",101.9725,102.63328,"EESSEE","amelia","C","I","s","amelia_consonants.wav",82.6725,83.39679,"EEFEE","amelia","C","I","f","ewan.wav",254.4625,255.0425,"EESSEE","ewan","C","I","s","A","B",0,-0.54232339533073,0.88388327135861,-0.123430271037754
"105","X_IHTYDKWOUB","English","0:26.7",1,0,0,0,0,0,0,0,1,0,0,0,0,1,0,0,1,0,1,0,0,1,0,0,78,"English",1,0,0,0,0,0,1,0,"1.0","0","0",0,1,0,0,0,0,0,1,0,0,0,0,1,0,1,0,1,0,1,0,1,"English","one_play_two_responses","stimulus22_B","orderSI=106","orderAI=108","0:10.2","108;",1,0,NA,4.84284869241275,4.48806656717853,305.099467622003,287.236260299426,3.96089395657529,4.06553726026763,257.458107177394,256.128847396861,17.0435522776711,16.7378153277514,1073.74379349328,1037.74455032059,10.5505514163449,9.9461131381046,696.336393478766,636.551240838694,"B","amelia_consonants_7","amelia_consonants_14","ewan_56","amelia_consonants.wav",17.98056,18.54394,"EEPEE","amelia","C","I","p","amelia_consonants.wav",36.60264,37.21308,"EETEE","amelia","C","I","t","ewan.wav",168.7025,169.3025,"EEPEE","ewan","C","I","p","A","B",0,-0.35478212523422,0.926741026249683,-0.0760811200306192
"106","X_IHTYDKWOUB","English","0:26.7",1,0,0,0,0,0,0,0,1,0,0,0,0,1,0,0,1,0,1,0,0,1,0,0,78,"English",1,0,0,0,0,0,1,0,"1.0","0","0",0,1,0,0,0,0,0,1,0,0,0,0,1,0,1,0,1,0,1,0,1,"English","one_play_two_responses","stimulus18_B","orderSI=110","orderAI=109","0:5.3","109;",1,0,NA,5.14837341926656,4.48806656717853,396.424753283525,287.236260299426,4.19292318659999,4.06553726026763,322.855085368199,256.128847396861,18.6212038897531,16.7378153277514,1433.83269951099,1037.74455032059,11.2351498934512,9.9461131381046,865.106541795744,636.551240838694,"B","amelia_consonants_7","amelia_consonants_55","ewan_56","amelia_consonants.wav",17.98056,18.54394,"EEPEE","amelia","C","I","p","amelia_consonants.wav",145.1325,145.8925,"EETHEE","amelia","C","I","θ","ewan.wav",168.7025,169.3025,"EEPEE","ewan","C","I","p","A","B",0,-0.66030685208803,0.871744568951236,-0.137258823498853
"107","X_IHTYDKWOUB","English","0:26.7",1,0,0,0,0,0,0,0,1,0,0,0,0,1,0,0,1,0,1,0,0,1,0,0,78,"English",1,0,0,0,0,0,1,0,"1.0","0","0",0,1,0,0,0,0,0,1,0,0,0,0,1,0,1,0,1,0,1,0,1,"English","one_play_two_responses","stimulus72_A","orderSI=88","orderAI=110","0:4.1","110;",1,0,NA,5.05774885832656,3.70616423991709,409.677657524451,326.142453112704,5.62208606557992,4.00754968411525,416.034368852914,344.649272833911,17.9806027098857,14.4627948228867,1528.35123034028,1272.72594441403,11.825057721362,10.252827132586,1028.78002175849,881.743133402397,"A","amelia_vowels_11","amelia_vowels_41","ewan_10","amelia_vowels.wav",27.47216,28.2425,"HAEDAH","amelia","V","A","æ","amelia_vowels.wav",107.22875,107.96148,"WHODAH","amelia","V","A","u","ewan.wav",28.6807,29.4125,"HAEDAH","ewan","V","A","æ","A","A",1,-1.35158461840947,0.732769527260263,-0.310924050465752
"108","X_IHTYDKWOUB","English","0:26.7",1,0,0,0,0,0,0,0,1,0,0,0,0,1,0,0,1,0,1,0,0,1,0,0,78,"English",1,0,0,0,0,0,1,0,"1.0","0","0",0,1,0,0,0,0,0,1,0,0,0,0,1,0,1,0,1,0,1,0,1,"English","one_play_two_responses","stimulus70_B","orderSI=90","orderAI=111","0:4.9","111;",0,1,NA,4.01565820377084,3.99646613438102,329.283972709209,307.727892347338,4.10876441510833,4.40234221387449,332.809917623775,334.578008254461,14.5029199721207,14.8686601302395,1189.2394377139,1144.88683002844,9.98577496285595,10.4906071137096,808.847771991332,807.77674775564,"B","amelia_vowels_30","amelia_vowels_15","ewan_29","amelia_vowels.wav",79.21868,79.88909,"HUHDI","amelia","V","I","ʌ","amelia_vowels.wav",37.6934,38.4725,"HAEDI","amelia","V","I","æ","ewan.wav",85.39155,86.1325,"HUHDI","ewan","V","I","ʌ","B","B",1,-0.0191920693898204,0.995220691499142,-0.00479076591598832
"109","X_IHTYDKWOUB","English","0:26.7",1,0,0,0,0,0,0,0,1,0,0,0,0,1,0,0,1,0,1,0,0,1,0,0,78,"English",1,0,0,0,0,0,1,0,"1.0","0","0",0,1,0,0,0,0,0,1,0,0,0,0,1,0,1,0,1,0,1,0,1,"English","one_play_two_responses","stimulus65_A","orderSI=95","orderAI=112","0:4.7","112;",1,0,NA,NA,NA,NA,NA,NA,NA,NA,NA,NA,NA,NA,NA,NA,NA,NA,NA,NA,NA,NA,NA,NA,NA,NA,NA,NA,NA,NA,NA,NA,NA,NA,NA,NA,NA,NA,NA,NA,NA,NA,NA,NA,NA,NA,NA,"A","A",1,NA,NA,NA
"110","X_IHTYDKWOUB","English","0:26.7",1,0,0,0,0,0,0,0,1,0,0,0,0,1,0,0,1,0,1,0,0,1,0,0,78,"English",1,0,0,0,0,0,1,0,"1.0","0","0",0,1,0,0,0,0,0,1,0,0,0,0,1,0,1,0,1,0,1,0,1,"English","one_play_two_responses","stimulus101_A","orderSI=125","orderAI=114","0:5.2","114;",0,1,NA,NA,NA,NA,NA,NA,NA,NA,NA,NA,NA,NA,NA,NA,NA,NA,NA,NA,NA,NA,NA,NA,NA,NA,NA,NA,NA,NA,NA,NA,NA,NA,NA,NA,NA,NA,NA,NA,NA,NA,NA,NA,NA,NA,NA,"B","A",0,NA,NA,NA
"111","X_IHTYDKWOUB","English","0:26.7",1,0,0,0,0,0,0,0,1,0,0,0,0,1,0,0,1,0,1,0,0,1,0,0,78,"English",1,0,0,0,0,0,1,0,"1.0","0","0",0,1,0,0,0,0,0,1,0,0,0,0,1,0,1,0,1,0,1,0,1,"English","one_play_two_responses","stimulus51_B","orderSI=143","orderAI=115","0:5.1","115;",1,0,NA,NA,NA,NA,NA,NA,NA,NA,NA,NA,NA,NA,NA,NA,NA,NA,NA,NA,NA,NA,NA,NA,NA,NA,NA,NA,NA,NA,NA,NA,NA,NA,NA,NA,NA,NA,NA,NA,NA,NA,NA,NA,NA,NA,NA,"A","B",0,NA,NA,NA
"112","X_IHTYDKWOUB","English","0:26.7",1,0,0,0,0,0,0,0,1,0,0,0,0,1,0,0,1,0,1,0,0,1,0,0,78,"English",1,0,0,0,0,0,1,0,"1.0","0","0",0,1,0,0,0,0,0,1,0,0,0,0,1,0,1,0,1,0,1,0,1,"English","one_play_two_responses","stimulus105_A","orderSI=121","orderAI=117","0:4.4","117;",1,0,NA,NA,NA,NA,NA,NA,NA,NA,NA,NA,NA,NA,NA,NA,NA,NA,NA,NA,NA,NA,NA,NA,NA,NA,NA,NA,NA,NA,NA,NA,NA,NA,NA,NA,NA,NA,NA,NA,NA,NA,NA,NA,NA,NA,NA,"A","A",1,NA,NA,NA
"113","X_IHTYDKWOUB","English","0:26.7",1,0,0,0,0,0,0,0,1,0,0,0,0,1,0,0,1,0,1,0,0,1,0,0,78,"English",1,0,0,0,0,0,1,0,"1.0","0","0",0,1,0,0,0,0,0,1,0,0,0,0,1,0,1,0,1,0,1,0,1,"English","one_play_two_responses","stimulus54_B","orderSI=140","orderAI=118","0:4.8","118;",0,1,NA,NA,NA,NA,NA,NA,NA,NA,NA,NA,NA,NA,NA,NA,NA,NA,NA,NA,NA,NA,NA,NA,NA,NA,NA,NA,NA,NA,NA,NA,NA,NA,NA,NA,NA,NA,NA,NA,NA,NA,NA,NA,NA,NA,NA,"B","B",1,NA,NA,NA
"114","X_IHTYDKWOUB","English","0:26.7",1,0,0,0,0,0,0,0,1,0,0,0,0,1,0,0,1,0,1,0,0,1,0,0,78,"English",1,0,0,0,0,0,1,0,"1.0","0","0",0,1,0,0,0,0,0,1,0,0,0,0,1,0,1,0,1,0,1,0,1,"English","one_play_two_responses","stimulus8_A","orderSI=154","orderAI=119","0:5.4","119;",1,0,NA,5.33902398008609,4.48806656717853,411.104846466629,287.236260299426,4.18057516625406,4.06553726026763,313.543137469054,256.128847396861,18.3959465186104,16.7378153277514,1398.09193541439,1037.74455032059,12.0292812984254,9.9461131381046,902.196097381908,636.551240838694,"A","amelia_consonants_7","amelia_consonants_46","ewan_56","amelia_consonants.wav",17.98056,18.54394,"EEPEE","amelia","C","I","p","amelia_consonants.wav",121.8625,122.6025,"EESHEE","amelia","C","I","ʃ","ewan.wav",168.7025,169.3025,"EEPEE","ewan","C","I","p","A","A",1,-0.85095741290756,0.840615547695323,-0.173620860632463
"115","X_IHTYDKWOUB","English","0:26.7",1,0,0,0,0,0,0,0,1,0,0,0,0,1,0,0,1,0,1,0,0,1,0,0,78,"English",1,0,0,0,0,0,1,0,"1.0","0","0",0,1,0,0,0,0,0,1,0,0,0,0,1,0,1,0,1,0,1,0,1,"English","one_play_two_responses","stimulus102_B","orderSI=124","orderAI=120","0:4.0","120;",0,1,NA,NA,NA,NA,NA,NA,NA,NA,NA,NA,NA,NA,NA,NA,NA,NA,NA,NA,NA,NA,NA,NA,NA,NA,NA,NA,NA,NA,NA,NA,NA,NA,NA,NA,NA,NA,NA,NA,NA,NA,NA,NA,NA,NA,NA,"B","B",1,NA,NA,NA
"116","X_IHTYDKWOUB","English","0:26.7",1,0,0,0,0,0,0,0,1,0,0,0,0,1,0,0,1,0,1,0,0,1,0,0,78,"English",1,0,0,0,0,0,1,0,"1.0","0","0",0,1,0,0,0,0,0,1,0,0,0,0,1,0,1,0,1,0,1,0,1,"English","one_play_two_responses","stimulus55_B","orderSI=139","orderAI=121","0:3.8","121;",1,0,NA,5.27830753641063,4.02666354547166,475.047678276956,394.613027456223,5.45072699382694,4.08076040262413,490.565429444425,387.672238249292,18.8153883925327,15.2288894501391,1749.83112050554,1492.43116611363,14.1160226557975,10.939437399031,1270.44203902177,1039.24655290795,"B","amelia_vowels_1","amelia_vowels_41","ewan_2","amelia_vowels.wav",2.19827,2.9625,"HADAH","amelia","V","A","ɑ","amelia_vowels.wav",107.22875,107.96148,"WHODAH","amelia","V","A","u","ewan.wav",6.19383,7.0825,"HADAH","ewan","V","A","ɑ","A","B",0,-1.25164399093897,0.762870203695991,-0.270667375279971
"117","X_IHTYDKWOUB","English","0:26.7",1,0,0,0,0,0,0,0,1,0,0,0,0,1,0,0,1,0,1,0,0,1,0,0,78,"English",1,0,0,0,0,0,1,0,"1.0","0","0",0,1,0,0,0,0,0,1,0,0,0,0,1,0,1,0,1,0,1,0,1,"English","one_play_two_responses","stimulus16_A","orderSI=146","orderAI=122","0:5.5","122;",0,1,NA,5.9119955498923,4.12817844946046,372.455719643215,288.972491462232,4.52877206098089,3.6727697583545,267.197551597873,253.42111332646,21.2876032448225,15.1485003932378,1298.54379793417,1060.39502752664,13.2443076941747,8.61452101238219,794.658461650481,603.016470866754,"A","amelia_consonants_38","amelia_consonants_7","ewan_87","amelia_consonants.wav",101.9725,102.63328,"EESSEE","amelia","C","I","s","amelia_consonants.wav",17.98056,18.54394,"EEPEE","amelia","C","I","p","ewan.wav",254.4625,255.0425,"EESSEE","ewan","C","I","s","B","A",0,-1.78381710043184,0.698271575920869,-0.359147174640162
"118","X_IHTYDKWOUB","English","0:26.7",1,0,0,0,0,0,0,0,1,0,0,0,0,1,0,0,1,0,1,0,0,1,0,0,78,"English",1,0,0,0,0,0,1,0,"1.0","0","0",0,1,0,0,0,0,0,1,0,0,0,0,1,0,1,0,1,0,1,0,1,"English","one_play_two_responses","stimulus52_A","orderSI=142","orderAI=124","0:5.0","124;",0,1,NA,NA,NA,NA,NA,NA,NA,NA,NA,NA,NA,NA,NA,NA,NA,NA,NA,NA,NA,NA,NA,NA,NA,NA,NA,NA,NA,NA,NA,NA,NA,NA,NA,NA,NA,NA,NA,NA,NA,NA,NA,NA,NA,NA,NA,"B","A",0,NA,NA,NA
"119","X_IHTYDKWOUB","English","0:26.7",1,0,0,0,0,0,0,0,1,0,0,0,0,1,0,0,1,0,1,0,0,1,0,0,78,"English",1,0,0,0,0,0,1,0,"1.0","0","0",0,1,0,0,0,0,0,1,0,0,0,0,1,0,1,0,1,0,1,0,1,"English","one_play_two_responses","stimulus97_A","orderSI=129","orderAI=125","0:4.7","125;",1,0,NA,4.61092414612699,4.18237789471523,368.873931690159,368.04925473494,4.58098017202898,4.37135386695183,352.735473246231,380.307786424809,16.8676660746723,15.1472904422494,1332.54561989911,1332.96155891795,10.966984855877,9.75093569430409,833.490849046649,848.331405404456,"A","ewan_46","ewan_37","amelia_vowels_48","ewan.wav",134.9925,135.7425,"WHODI","ewan","V","I","u","ewan.wav",109.0925,109.8025,"HOODI","ewan","V","I","ʊ","amelia_vowels.wav",123.87499,124.5925,"WHODI","amelia","V","I","u","A","A",1,-0.428546251411761,0.907058490265618,-0.0975483433325464
"120","X_IHTYDKWOUB","English","0:26.7",1,0,0,0,0,0,0,0,1,0,0,0,0,1,0,0,1,0,1,0,0,1,0,0,78,"English",1,0,0,0,0,0,1,0,"1.0","0","0",0,1,0,0,0,0,0,1,0,0,0,0,1,0,1,0,1,0,1,0,1,"English","one_play_two_responses","stimulus108_A","orderSI=118","orderAI=126","0:4.1","126;",0,1,NA,NA,NA,NA,NA,NA,NA,NA,NA,NA,NA,NA,NA,NA,NA,NA,NA,NA,NA,NA,NA,NA,NA,NA,NA,NA,NA,NA,NA,NA,NA,NA,NA,NA,NA,NA,NA,NA,NA,NA,NA,NA,NA,NA,NA,"B","A",0,NA,NA,NA
"121","X_IHTYDKWOUB","English","0:26.7",1,0,0,0,0,0,0,0,1,0,0,0,0,1,0,0,1,0,1,0,0,1,0,0,78,"English",1,0,0,0,0,0,1,0,"1.0","0","0",0,1,0,0,0,0,0,1,0,0,0,0,1,0,1,0,1,0,1,0,1,"English","one_play_two_responses","stimulus13_A","orderSI=149","orderAI=127","0:5.1","127;",1,0,NA,NA,NA,NA,NA,NA,NA,NA,NA,NA,NA,NA,NA,NA,NA,NA,NA,NA,NA,NA,NA,NA,NA,NA,NA,NA,NA,NA,NA,NA,NA,NA,NA,NA,NA,NA,NA,NA,NA,NA,NA,NA,NA,NA,NA,"A","A",1,NA,NA,NA
"122","X_IHTYDKWOUB","English","0:26.7",1,0,0,0,0,0,0,0,1,0,0,0,0,1,0,0,1,0,1,0,0,1,0,0,78,"English",1,0,0,0,0,0,1,0,"1.0","0","0",0,1,0,0,0,0,0,1,0,0,0,0,1,0,1,0,1,0,1,0,1,"English","one_play_two_responses","stimulus53_A","orderSI=141","orderAI=129","0:6.8","129;",1,0,NA,3.55045724360568,3.95044152940679,365.697096091385,327.886646940764,4.83277944486681,4.44356003437991,434.950150038013,368.815482853533,14.09465858861,15.3384007596681,1465.84449321544,1273.08726305245,10.7816841552388,10.8312483699675,1088.95009967912,898.993614707303,"A","ewan_28","ewan_2","amelia_vowels_25","ewan.wav",81.0625,81.7525,"HUHDAH","ewan","V","A","ʌ","ewan.wav",6.19383,7.0825,"HADAH","ewan","V","A","ɑ","amelia_vowels.wav",66.85124,67.6025,"HUHDAH","amelia","V","A","ʌ","A","A",1,0.39998428580111,1.11265711945172,0.106750956053942
"123","X_IHTYDKWOUB","English","0:26.7",1,0,0,0,0,0,0,0,1,0,0,0,0,1,0,0,1,0,1,0,0,1,0,0,78,"English",1,0,0,0,0,0,1,0,"1.0","0","0",0,1,0,0,0,0,0,1,0,0,0,0,1,0,1,0,1,0,1,0,1,"English","one_play_two_responses","stimulus103_B","orderSI=123","orderAI=130","0:4.4","130;",0,1,NA,NA,NA,NA,NA,NA,NA,NA,NA,NA,NA,NA,NA,NA,NA,NA,NA,NA,NA,NA,NA,NA,NA,NA,NA,NA,NA,NA,NA,NA,NA,NA,NA,NA,NA,NA,NA,NA,NA,NA,NA,NA,NA,NA,NA,"B","B",1,NA,NA,NA
"124","X_IHTYDKWOUB","English","0:26.7",1,0,0,0,0,0,0,0,1,0,0,0,0,1,0,0,1,0,1,0,0,1,0,0,78,"English",1,0,0,0,0,0,1,0,"1.0","0","0",0,1,0,0,0,0,0,1,0,0,0,0,1,0,1,0,1,0,1,0,1,"English","one_play_two_responses","stimulus3_B","orderSI=159","orderAI=132","0:5.7","132;",0,1,NA,NA,NA,NA,NA,NA,NA,NA,NA,NA,NA,NA,NA,NA,NA,NA,NA,NA,NA,NA,NA,NA,NA,NA,NA,NA,NA,NA,NA,NA,NA,NA,NA,NA,NA,NA,NA,NA,NA,NA,NA,NA,NA,NA,NA,"B","B",1,NA,NA,NA
"125","X_IHTYDKWOUB","English","0:26.7",1,0,0,0,0,0,0,0,1,0,0,0,0,1,0,0,1,0,1,0,0,1,0,0,78,"English",1,0,0,0,0,0,1,0,"1.0","0","0",0,1,0,0,0,0,0,1,0,0,0,0,1,0,1,0,1,0,1,0,1,"English","one_play_two_responses","stimulus3_B","orderSI=159","orderAI=132","0:6.1","132;",0,1,NA,NA,NA,NA,NA,NA,NA,NA,NA,NA,NA,NA,NA,NA,NA,NA,NA,NA,NA,NA,NA,NA,NA,NA,NA,NA,NA,NA,NA,NA,NA,NA,NA,NA,NA,NA,NA,NA,NA,NA,NA,NA,NA,NA,NA,"B","B",1,NA,NA,NA
"126","X_IHTYDKWOUB","English","0:26.7",1,0,0,0,0,0,0,0,1,0,0,0,0,1,0,0,1,0,1,0,0,1,0,0,78,"English",1,0,0,0,0,0,1,0,"1.0","0","0",0,1,0,0,0,0,0,1,0,0,0,0,1,0,1,0,1,0,1,0,1,"English","one_play_two_responses","stimulus107_B","orderSI=119","orderAI=133","0:3.9","133;",1,0,NA,NA,NA,NA,NA,NA,NA,NA,NA,NA,NA,NA,NA,NA,NA,NA,NA,NA,NA,NA,NA,NA,NA,NA,NA,NA,NA,NA,NA,NA,NA,NA,NA,NA,NA,NA,NA,NA,NA,NA,NA,NA,NA,NA,NA,"A","B",0,NA,NA,NA
"127","X_IHTYDKWOUB","English","0:26.7",1,0,0,0,0,0,0,0,1,0,0,0,0,1,0,0,1,0,1,0,0,1,0,0,78,"English",1,0,0,0,0,0,1,0,"1.0","0","0",0,1,0,0,0,0,0,1,0,0,0,0,1,0,1,0,1,0,1,0,1,"English","one_play_two_responses","stimulus7_B","orderSI=155","orderAI=134","0:5.3","134;",0,1,NA,NA,NA,NA,NA,NA,NA,NA,NA,NA,NA,NA,NA,NA,NA,NA,NA,NA,NA,NA,NA,NA,NA,NA,NA,NA,NA,NA,NA,NA,NA,NA,NA,NA,NA,NA,NA,NA,NA,NA,NA,NA,NA,NA,NA,"B","B",1,NA,NA,NA
"128","X_IHTYDKWOUB","English","0:26.7",1,0,0,0,0,0,0,0,1,0,0,0,0,1,0,0,1,0,1,0,0,1,0,0,78,"English",1,0,0,0,0,0,1,0,"1.0","0","0",0,1,0,0,0,0,0,1,0,0,0,0,1,0,1,0,1,0,1,0,1,"English","one_play_two_responses","stimulus60_A","orderSI=134","orderAI=135","0:5.5","135;",1,0,NA,NA,NA,NA,NA,NA,NA,NA,NA,NA,NA,NA,NA,NA,NA,NA,NA,NA,NA,NA,NA,NA,NA,NA,NA,NA,NA,NA,NA,NA,NA,NA,NA,NA,NA,NA,NA,NA,NA,NA,NA,NA,NA,NA,NA,"A","A",1,NA,NA,NA
"129","X_IHTYDKWOUB","English","0:26.7",1,0,0,0,0,0,0,0,1,0,0,0,0,1,0,0,1,0,1,0,0,1,0,0,78,"English",1,0,0,0,0,0,1,0,"1.0","0","0",0,1,0,0,0,0,0,1,0,0,0,0,1,0,1,0,1,0,1,0,1,"English","one_play_two_responses","stimulus4_A","orderSI=158","orderAI=136","0:5.7","136;",0,1,NA,4.05087911693847,4.11275680341429,263.307142601001,279.667462632172,3.67504210722373,3.42602549013817,227.852610647871,232.969733329395,13.9937774618886,14.7573219204716,909.59553502276,1003.49789059207,9.36995452846283,8.94944648578029,580.937180764696,608.56236103306,"A","amelia_consonants_23","amelia_consonants_14","ewan_71","amelia_consonants.wav",61.4825,62.1525,"EEKEE","amelia","C","I","k","amelia_consonants.wav",36.60264,37.21308,"EETEE","amelia","C","I","t","ewan.wav",210.7425,211.2825,"EEKEE","ewan","C","I","k","B","A",0,0.0618776864758201,1.01527512539614,0.0151596352673421
"130","X_IHTYDKWOUB","English","0:26.7",1,0,0,0,0,0,0,0,1,0,0,0,0,1,0,0,1,0,1,0,0,1,0,0,78,"English",1,0,0,0,0,0,1,0,"1.0","0","0",0,1,0,0,0,0,0,1,0,0,0,0,1,0,1,0,1,0,1,0,1,"English","one_play_two_responses","stimulus5_A","orderSI=157","orderAI=137","0:5.0","137;",1,0,NA,NA,NA,NA,NA,NA,NA,NA,NA,NA,NA,NA,NA,NA,NA,NA,NA,NA,NA,NA,NA,NA,NA,NA,NA,NA,NA,NA,NA,NA,NA,NA,NA,NA,NA,NA,NA,NA,NA,NA,NA,NA,NA,NA,NA,"A","A",1,NA,NA,NA
"131","X_IHTYDKWOUB","English","0:26.7",1,0,0,0,0,0,0,0,1,0,0,0,0,1,0,0,1,0,1,0,0,1,0,0,78,"English",1,0,0,0,0,0,1,0,"1.0","0","0",0,1,0,0,0,0,0,1,0,0,0,0,1,0,1,0,1,0,1,0,1,"English","one_play_two_responses","stimulus14_B","orderSI=148","orderAI=138","0:5.8","138;",0,1,NA,5.9119955498923,4.48806656717853,372.455719643215,287.236260299426,4.52877206098089,4.06553726026763,267.197551597873,256.128847396861,21.2876032448225,16.7378153277514,1298.54379793417,1037.74455032059,13.2443076941747,9.9461131381046,794.658461650481,636.551240838694,"B","ewan_56","ewan_87","amelia_consonants_7","ewan.wav",168.7025,169.3025,"EEPEE","ewan","C","I","p","ewan.wav",254.4625,255.0425,"EESSEE","ewan","C","I","s","amelia_consonants.wav",17.98056,18.54394,"EEPEE","amelia","C","I","p","B","B",1,-1.42392898271377,0.759145795916624,-0.275561430551611
"132","X_IHTYDKWOUB","English","0:26.7",1,0,0,0,0,0,0,0,1,0,0,0,0,1,0,0,1,0,1,0,0,1,0,0,78,"English",1,0,0,0,0,0,1,0,"1.0","0","0",0,1,0,0,0,0,0,1,0,0,0,0,1,0,1,0,1,0,1,0,1,"English","one_play_two_responses","stimulus62_B","orderSI=132","orderAI=139","0:5.0","139;",1,0,NA,NA,NA,NA,NA,NA,NA,NA,NA,NA,NA,NA,NA,NA,NA,NA,NA,NA,NA,NA,NA,NA,NA,NA,NA,NA,NA,NA,NA,NA,NA,NA,NA,NA,NA,NA,NA,NA,NA,NA,NA,NA,NA,NA,NA,"A","B",0,NA,NA,NA
"133","X_IHTYDKWOUB","English","0:26.7",1,0,0,0,0,0,0,0,1,0,0,0,0,1,0,0,1,0,1,0,0,1,0,0,78,"English",1,0,0,0,0,0,1,0,"1.0","0","0",0,1,0,0,0,0,0,1,0,0,0,0,1,0,1,0,1,0,1,0,1,"English","one_play_two_responses","stimulus2_B","orderSI=160","orderAI=140","0:6.0","140;",0,1,NA,5.12801473178368,4.02666354547166,471.777355324098,394.613027456223,5.1043679716747,4.08076040262413,479.810589337422,387.672238249292,18.9785579314019,15.2288894501391,1765.00588762038,1492.43116611363,12.4509096842319,10.939437399031,1245.09096842319,1039.24655290795,"B","amelia_vowels_1","amelia_vowels_33","ewan_2","amelia_vowels.wav",2.19827,2.9625,"HADAH","amelia","V","A","ɑ","amelia_vowels.wav",87.27244,88.0325,"HOODAH","amelia","V","A","ʊ","ewan.wav",6.19383,7.0825,"HADAH","ewan","V","A","ɑ","B","B",1,-1.10135118631202,0.785228544784438,-0.241780463719924
"134","X_IHTYDKWOUB","English","0:26.7",1,0,0,0,0,0,0,0,1,0,0,0,0,1,0,0,1,0,1,0,0,1,0,0,78,"English",1,0,0,0,0,0,1,0,"1.0","0","0",0,1,0,0,0,0,0,1,0,0,0,0,1,0,1,0,1,0,1,0,1,"English","one_play_two_responses","stimulus98_B","orderSI=128","orderAI=141","0:4.6","141;",1,0,NA,NA,NA,NA,NA,NA,NA,NA,NA,NA,NA,NA,NA,NA,NA,NA,NA,NA,NA,NA,NA,NA,NA,NA,NA,NA,NA,NA,NA,NA,NA,NA,NA,NA,NA,NA,NA,NA,NA,NA,NA,NA,NA,NA,NA,"A","B",0,NA,NA,NA
"135","X_IHTYDKWOUB","English","0:26.7",1,0,0,0,0,0,0,0,1,0,0,0,0,1,0,0,1,0,1,0,0,1,0,0,78,"English",1,0,0,0,0,0,1,0,"1.0","0","0",0,1,0,0,0,0,0,1,0,0,0,0,1,0,1,0,1,0,1,0,1,"English","one_play_two_responses","stimulus58_B","orderSI=136","orderAI=142","0:4.7","142;",0,1,NA,NA,NA,NA,NA,NA,NA,NA,NA,NA,NA,NA,NA,NA,NA,NA,NA,NA,NA,NA,NA,NA,NA,NA,NA,NA,NA,NA,NA,NA,NA,NA,NA,NA,NA,NA,NA,NA,NA,NA,NA,NA,NA,NA,NA,"B","B",1,NA,NA,NA
"136","X_IHTYDKWOUB","English","0:26.7",1,0,0,0,0,0,0,0,1,0,0,0,0,1,0,0,1,0,1,0,0,1,0,0,78,"English",1,0,0,0,0,0,1,0,"1.0","0","0",0,1,0,0,0,0,0,1,0,0,0,0,1,0,1,0,1,0,1,0,1,"English","one_play_two_responses","stimulus64_A","orderSI=130","orderAI=143","0:5.1","143;",1,0,NA,NA,NA,NA,NA,NA,NA,NA,NA,NA,NA,NA,NA,NA,NA,NA,NA,NA,NA,NA,NA,NA,NA,NA,NA,NA,NA,NA,NA,NA,NA,NA,NA,NA,NA,NA,NA,NA,NA,NA,NA,NA,NA,NA,NA,"A","A",1,NA,NA,NA
"137","X_IHTYDKWOUB","English","0:26.7",1,0,0,0,0,0,0,0,1,0,0,0,0,1,0,0,1,0,1,0,0,1,0,0,78,"English",1,0,0,0,0,0,1,0,"1.0","0","0",0,1,0,0,0,0,0,1,0,0,0,0,1,0,1,0,1,0,1,0,1,"English","one_play_two_responses","stimulus59_B","orderSI=135","orderAI=144","0:8.0","144;",0,1,NA,NA,NA,NA,NA,NA,NA,NA,NA,NA,NA,NA,NA,NA,NA,NA,NA,NA,NA,NA,NA,NA,NA,NA,NA,NA,NA,NA,NA,NA,NA,NA,NA,NA,NA,NA,NA,NA,NA,NA,NA,NA,NA,NA,NA,"B","B",1,NA,NA,NA
"138","X_IHTYDKWOUB","English","0:26.7",1,0,0,0,0,0,0,0,1,0,0,0,0,1,0,0,1,0,1,0,0,1,0,0,78,"English",1,0,0,0,0,0,1,0,"1.0","0","0",0,1,0,0,0,0,0,1,0,0,0,0,1,0,1,0,1,0,1,0,1,"English","one_play_two_responses","stimulus57_A","orderSI=137","orderAI=145","0:5.3","145;",1,0,NA,NA,NA,NA,NA,NA,NA,NA,NA,NA,NA,NA,NA,NA,NA,NA,NA,NA,NA,NA,NA,NA,NA,NA,NA,NA,NA,NA,NA,NA,NA,NA,NA,NA,NA,NA,NA,NA,NA,NA,NA,NA,NA,NA,NA,"A","A",1,NA,NA,NA
"139","X_IHTYDKWOUB","English","0:26.7",1,0,0,0,0,0,0,0,1,0,0,0,0,1,0,0,1,0,1,0,0,1,0,0,78,"English",1,0,0,0,0,0,1,0,"1.0","0","0",0,1,0,0,0,0,0,1,0,0,0,0,1,0,1,0,1,0,1,0,1,"English","one_play_two_responses","stimulus12_A","orderSI=150","orderAI=146","0:5.3","146;",0,1,NA,5.54213070847881,4.01669947148956,382.407018885038,265.102165118311,4.62879861437174,4.8822503414671,291.61431270542,307.581771512427,18.5558446765368,14.8083061718698,1280.35328268104,977.348207343409,12.3600185418053,10.7972105135754,803.401205217348,712.615893895977,"A","ewan_50","ewan_83","amelia_consonants_3","ewan.wav",152.8525,153.4425,"APAH","ewan","C","A","p","ewan.wav",244.4025,244.9725,"ASSAH","ewan","C","A","s","amelia_consonants.wav",7.31359,7.93251,"APAH","amelia","C","A","p","B","A",0,-1.52543123698925,0.724757260839136,-0.321918492825402
"140","X_IHTYDKWOUB","English","0:26.7",1,0,0,0,0,0,0,0,1,0,0,0,0,1,0,0,1,0,1,0,0,1,0,0,78,"English",1,0,0,0,0,0,1,0,"1.0","0","0",0,1,0,0,0,0,0,1,0,0,0,0,1,0,1,0,1,0,1,0,1,"English","one_play_two_responses","stimulus111_B","orderSI=115","orderAI=147","0:5.8","147;",0,1,NA,NA,NA,NA,NA,NA,NA,NA,NA,NA,NA,NA,NA,NA,NA,NA,NA,NA,NA,NA,NA,NA,NA,NA,NA,NA,NA,NA,NA,NA,NA,NA,NA,NA,NA,NA,NA,NA,NA,NA,NA,NA,NA,NA,NA,"B","B",1,NA,NA,NA
"141","X_IHTYDKWOUB","English","0:26.7",1,0,0,0,0,0,0,0,1,0,0,0,0,1,0,0,1,0,1,0,0,1,0,0,78,"English",1,0,0,0,0,0,1,0,"1.0","0","0",0,1,0,0,0,0,0,1,0,0,0,0,1,0,1,0,1,0,1,0,1,"English","one_play_two_responses","stimulus1_A","orderSI=161","orderAI=148","0:5.5","148;",1,0,NA,4.48665682097521,4.95926823694916,381.365829782893,376.904386008136,4.18216844259386,4.24158644606135,338.755643850103,318.118983454601,16.7411771570846,18.4878260846476,1423.00005835219,1405.07478243322,10.8478066899872,11.2910784776832,900.36795526894,846.830885826241,"A","amelia_vowels_5","amelia_vowels_15","ewan_8","amelia_vowels.wav",12.5659,13.30968,"HADI","amelia","V","I","ɑ","amelia_vowels.wav",37.6934,38.4725,"HAEDI","amelia","V","I","æ","ewan.wav",22.3965,23.01587,"HADI","ewan","V","I","ɑ","A","A",1,0.47261141597395,1.10533709950012,0.100150355867034
"142","X_IHTYDKWOUB","English","0:26.7",1,0,0,0,0,0,0,0,1,0,0,0,0,1,0,0,1,0,1,0,0,1,0,0,78,"English",1,0,0,0,0,0,1,0,"1.0","0","0",0,1,0,0,0,0,0,1,0,0,0,0,1,0,1,0,1,0,1,0,1,"English","one_play_two_responses","stimulus112_A","orderSI=114","orderAI=149","0:4.4","149;",0,1,NA,NA,NA,NA,NA,NA,NA,NA,NA,NA,NA,NA,NA,NA,NA,NA,NA,NA,NA,NA,NA,NA,NA,NA,NA,NA,NA,NA,NA,NA,NA,NA,NA,NA,NA,NA,NA,NA,NA,NA,NA,NA,NA,NA,NA,"B","A",0,NA,NA,NA
"143","X_IHTYDKWOUB","English","0:26.7",1,0,0,0,0,0,0,0,1,0,0,0,0,1,0,0,1,0,1,0,0,1,0,0,78,"English",1,0,0,0,0,0,1,0,"1.0","0","0",0,1,0,0,0,0,0,1,0,0,0,0,1,0,1,0,1,0,1,0,1,"English","one_play_two_responses","stimulus10_B","orderSI=152","orderAI=150","0:4.3","150;",1,0,NA,5.33902398008609,4.14474670545948,411.104846466629,319.14549632038,4.18057516625406,3.22669150398718,313.543137469054,242.001862799038,18.3959465186104,14.5940028095793,1398.09193541439,1123.73821633761,12.0292812984254,7.48461333335758,902.196097381908,568.830613335176,"B","ewan_96","ewan_56","amelia_consonants_46","ewan.wav",276.7625,277.3325,"EESHEE","ewan","C","I","ʃ","ewan.wav",168.7025,169.3025,"EEPEE","ewan","C","I","p","amelia_consonants.wav",121.8625,122.6025,"EESHEE","amelia","C","I","ʃ","A","B",0,-1.19427727462661,0.776311685603751,-0.253201182735515
"144","X_IHTYDKWOUB","English","0:26.7",1,0,0,0,0,0,0,0,1,0,0,0,0,1,0,0,1,0,1,0,0,1,0,0,78,"English",1,0,0,0,0,0,1,0,"1.0","0","0",0,1,0,0,0,0,0,1,0,0,0,0,1,0,1,0,1,0,1,0,1,"English","one_play_two_responses","stimulus56_A","orderSI=138","orderAI=151","0:6.9","151;",1,0,NA,NA,NA,NA,NA,NA,NA,NA,NA,NA,NA,NA,NA,NA,NA,NA,NA,NA,NA,NA,NA,NA,NA,NA,NA,NA,NA,NA,NA,NA,NA,NA,NA,NA,NA,NA,NA,NA,NA,NA,NA,NA,NA,NA,NA,"A","A",1,NA,NA,NA
"145","X_IHTYDKWOUB","English","0:26.7",1,0,0,0,0,0,0,0,1,0,0,0,0,1,0,0,1,0,1,0,0,1,0,0,78,"English",1,0,0,0,0,0,1,0,"1.0","0","0",0,1,0,0,0,0,0,1,0,0,0,0,1,0,1,0,1,0,1,0,1,"English","one_play_two_responses","stimulus6_B","orderSI=156","orderAI=152","0:5.8","152;",0,1,NA,5.04148800770463,4.42071027583906,342.821184523915,282.9254576537,5.12711982352917,4.72243690618866,328.135668705867,302.235961996074,18.2543975596197,16.2997904124523,1241.29903405414,1059.4863768094,12.2177431533519,11.3545630419892,830.806534427931,726.692034687311,"B","amelia_consonants_9","amelia_consonants_20","ewan_59","amelia_consonants.wav",23.47667,24.1025,"ATAH","amelia","C","A","t","amelia_consonants.wav",53.0271,53.6525,"AKAH","amelia","C","A","k","ewan.wav",177.0325,177.5625,"ATAH","ewan","C","A","t","B","B",1,-0.62077773186557,0.876866169091969,-0.131400899061975
"146","X_IHTYDKWOUB","English","0:26.7",1,0,0,0,0,0,0,0,1,0,0,0,0,1,0,0,1,0,1,0,0,1,0,0,78,"English",1,0,0,0,0,0,1,0,"1.0","0","0",0,1,0,0,0,0,0,1,0,0,0,0,1,0,1,0,1,0,1,0,1,"English","one_play_two_responses","stimulus11_B","orderSI=151","orderAI=153","0:5.3","153;",1,0,NA,NA,NA,NA,NA,NA,NA,NA,NA,NA,NA,NA,NA,NA,NA,NA,NA,NA,NA,NA,NA,NA,NA,NA,NA,NA,NA,NA,NA,NA,NA,NA,NA,NA,NA,NA,NA,NA,NA,NA,NA,NA,NA,NA,NA,"A","B",0,NA,NA,NA
"147","X_IHTYDKWOUB","English","0:26.7",1,0,0,0,0,0,0,0,1,0,0,0,0,1,0,0,1,0,1,0,0,1,0,0,78,"English",1,0,0,0,0,0,1,0,"1.0","0","0",0,1,0,0,0,0,0,1,0,0,0,0,1,0,1,0,1,0,1,0,1,"English","one_play_two_responses","stimulus110_B","orderSI=116","orderAI=154","0:4.4","154;",0,1,NA,NA,NA,NA,NA,NA,NA,NA,NA,NA,NA,NA,NA,NA,NA,NA,NA,NA,NA,NA,NA,NA,NA,NA,NA,NA,NA,NA,NA,NA,NA,NA,NA,NA,NA,NA,NA,NA,NA,NA,NA,NA,NA,NA,NA,"B","B",1,NA,NA,NA
"148","X_IHTYDKWOUB","English","0:26.7",1,0,0,0,0,0,0,0,1,0,0,0,0,1,0,0,1,0,1,0,0,1,0,0,78,"English",1,0,0,0,0,0,1,0,"1.0","0","0",0,1,0,0,0,0,0,1,0,0,0,0,1,0,1,0,1,0,1,0,1,"English","one_play_two_responses","stimulus106_B","orderSI=120","orderAI=155","0:4.7","155;",1,0,NA,NA,NA,NA,NA,NA,NA,NA,NA,NA,NA,NA,NA,NA,NA,NA,NA,NA,NA,NA,NA,NA,NA,NA,NA,NA,NA,NA,NA,NA,NA,NA,NA,NA,NA,NA,NA,NA,NA,NA,NA,NA,NA,NA,NA,"A","B",0,NA,NA,NA
"149","X_IHTYDKWOUB","English","0:26.7",1,0,0,0,0,0,0,0,1,0,0,0,0,1,0,0,1,0,1,0,0,1,0,0,78,"English",1,0,0,0,0,0,1,0,"1.0","0","0",0,1,0,0,0,0,0,1,0,0,0,0,1,0,1,0,1,0,1,0,1,"English","one_play_two_responses","stimulus109_A","orderSI=117","orderAI=156","0:4.8","156;",1,0,NA,NA,NA,NA,NA,NA,NA,NA,NA,NA,NA,NA,NA,NA,NA,NA,NA,NA,NA,NA,NA,NA,NA,NA,NA,NA,NA,NA,NA,NA,NA,NA,NA,NA,NA,NA,NA,NA,NA,NA,NA,NA,NA,NA,NA,"A","A",1,NA,NA,NA
"150","X_IHTYDKWOUB","English","0:26.7",1,0,0,0,0,0,0,0,1,0,0,0,0,1,0,0,1,0,1,0,0,1,0,0,78,"English",1,0,0,0,0,0,1,0,"1.0","0","0",0,1,0,0,0,0,0,1,0,0,0,0,1,0,1,0,1,0,1,0,1,"English","one_play_two_responses","stimulus61_A","orderSI=133","orderAI=157","0:5.0","157;",0,1,NA,NA,NA,NA,NA,NA,NA,NA,NA,NA,NA,NA,NA,NA,NA,NA,NA,NA,NA,NA,NA,NA,NA,NA,NA,NA,NA,NA,NA,NA,NA,NA,NA,NA,NA,NA,NA,NA,NA,NA,NA,NA,NA,NA,NA,"B","A",0,NA,NA,NA
"151","X_IHTYDKWOUB","English","0:26.7",1,0,0,0,0,0,0,0,1,0,0,0,0,1,0,0,1,0,1,0,0,1,0,0,78,"English",1,0,0,0,0,0,1,0,"1.0","0","0",0,1,0,0,0,0,0,1,0,0,0,0,1,0,1,0,1,0,1,0,1,"English","one_play_two_responses","stimulus9_A","orderSI=153","orderAI=158","0:5.1","158;",1,0,NA,NA,NA,NA,NA,NA,NA,NA,NA,NA,NA,NA,NA,NA,NA,NA,NA,NA,NA,NA,NA,NA,NA,NA,NA,NA,NA,NA,NA,NA,NA,NA,NA,NA,NA,NA,NA,NA,NA,NA,NA,NA,NA,NA,NA,"A","A",1,NA,NA,NA
"152","X_IHTYDKWOUB","English","0:26.7",1,0,0,0,0,0,0,0,1,0,0,0,0,1,0,0,1,0,1,0,0,1,0,0,78,"English",1,0,0,0,0,0,1,0,"1.0","0","0",0,1,0,0,0,0,0,1,0,0,0,0,1,0,1,0,1,0,1,0,1,"English","one_play_two_responses","stimulus99_B","orderSI=127","orderAI=160","0:5.4","160;",1,0,NA,4.61092414612699,3.9664110973132,368.873931690159,325.245709979682,4.58098017202898,4.24074807313773,352.735473246231,322.296853558468,16.8676660746723,14.754922362714,1332.54561989911,1224.65855610526,10.966984855877,10.6179828768912,833.490849046649,796.348715766843,"B","amelia_vowels_39","amelia_vowels_48","ewan_37","amelia_vowels.wav",101.46732,102.16942,"HOODI","amelia","V","I","ʊ","amelia_vowels.wav",123.87499,124.5925,"WHODI","amelia","V","I","u","ewan.wav",109.0925,109.8025,"HOODI","ewan","V","I","ʊ","A","B",0,-0.64451304881379,0.860220418209404,-0.150566622330387
"153","X_IHTYDKWOUB","English","0:26.7",1,0,0,0,0,0,0,0,1,0,0,0,0,1,0,0,1,0,1,0,0,1,0,0,78,"English",1,0,0,0,0,0,1,0,"1.0","0","0",0,1,0,0,0,0,0,1,0,0,0,0,1,0,1,0,1,0,1,0,1,"English","one_play_two_responses","stimulus99_B","orderSI=127","orderAI=160","0:5.4","160;",1,0,NA,4.61092414612699,3.9664110973132,368.873931690159,325.245709979682,4.58098017202898,4.24074807313773,352.735473246231,322.296853558468,16.8676660746723,14.754922362714,1332.54561989911,1224.65855610526,10.966984855877,10.6179828768912,833.490849046649,796.348715766843,"B","amelia_vowels_39","amelia_vowels_48","ewan_37","amelia_vowels.wav",101.46732,102.16942,"HOODI","amelia","V","I","ʊ","amelia_vowels.wav",123.87499,124.5925,"WHODI","amelia","V","I","u","ewan.wav",109.0925,109.8025,"HOODI","ewan","V","I","ʊ","A","B",0,-0.64451304881379,0.860220418209404,-0.150566622330387
"154","X_IHTYDKWOUB","English","0:26.7",1,0,0,0,0,0,0,0,1,0,0,0,0,1,0,0,1,0,1,0,0,1,0,0,78,"English",1,0,0,0,0,0,1,0,"1.0","0","0",0,1,0,0,0,0,0,1,0,0,0,0,1,0,1,0,1,0,1,0,1,"English","one_play_two_responses","stimulus63_B","orderSI=131","orderAI=161","0:5.7","161;",0,1,NA,NA,NA,NA,NA,NA,NA,NA,NA,NA,NA,NA,NA,NA,NA,NA,NA,NA,NA,NA,NA,NA,NA,NA,NA,NA,NA,NA,NA,NA,NA,NA,NA,NA,NA,NA,NA,NA,NA,NA,NA,NA,NA,NA,NA,"B","B",1,NA,NA,NA
"155","X_IHTYDKWOUB","English","0:26.7",1,0,0,0,0,0,0,0,1,0,0,0,0,1,0,0,1,0,1,0,0,1,0,0,78,"English",1,0,0,0,0,0,1,0,"1.0","0","0",0,1,0,0,0,0,0,1,0,0,0,0,1,0,1,0,1,0,1,0,1,"English","one_play_two_responses","stimulus15_B","orderSI=147","orderAI=162","0:5.3","162;",1,0,NA,5.54213070847881,4.58066385646578,382.407018885038,366.453108517263,4.62879861437174,4.50512958002086,291.61431270542,346.894977661606,18.5558446765368,16.8691239178949,1280.35328268104,1349.52991343159,12.3600185418053,11.0236757260067,803.401205217348,848.823030902515,"B","amelia_consonants_34","amelia_consonants_3","ewan_83","amelia_consonants.wav",91.35499,92.1125,"ASSAH","amelia","C","A","s","amelia_consonants.wav",7.31359,7.93251,"APAH","amelia","C","A","p","ewan.wav",244.4025,244.9725,"ASSAH","ewan","C","A","s","A","B",0,-0.961466852013031,0.826516749137277,-0.190535096787522
"156","X_USOZJQCKNP","English","0:29.1",1,0,0,0,0,0,0,1,0,0,0,0,0,1,0,0,1,1,0,0,0,1,0,0,55,"English",0,1,0,0,0,0,0,1,"1.0","0","1",0,0,0,0,0,1,0,0,0,0,0,0,1,0,1,0,1,0,1,0,1,"English","one_play_two_responses","stimulus133_A","orderSI=25","orderAI=14","0:4.5","14;",1,0,NA,4.60941233090876,4.11275680341429,350.315337149066,279.667462632172,3.61620617586521,3.42602549013817,271.215463189891,232.969733329395,15.492404034098,14.7573219204716,1177.42270659145,1003.49789059207,10.5854990629712,8.94944648578029,793.912429722837,608.56236103306,"A","amelia_consonants_23","amelia_consonants_46","ewan_71","amelia_consonants.wav",61.4825,62.1525,"EEKEE","amelia","C","I","k","amelia_consonants.wav",121.8625,122.6025,"EESHEE","amelia","C","I","ʃ","ewan.wav",210.7425,211.2825,"EEKEE","ewan","C","I","k","A","A",1,-0.49665552749447,0.892251876846836,-0.114006813115244
